"utc_date","local_date","exp_id","exp_ver","id","prolific_id","browser","task","task_ver","gorilla_counterbalance","trial_row","rt","response","attempt","accuracy","dishonest","display","counterbalance_order","list","event","condition","event_name","seq_pos","spatial_pos","recon_correct","spatial_stim","spatial_correct","temp_conf"
"13/04/2021 15:02:31","13/04/2021 11:02:33",48742,5,3598281,"5e3adfc595ff562fbdd130fa","Edge 89.0.774.75","retrieval_b1",2,"SS5",4,1948.34000000264,"caramelapple.png",1,1,0,"recon_trial","SS5",1,1,"pred","grocery store.png",1,1,"caramelapple.png",NA,NA,NA
"13/04/2021 15:02:33","13/04/2021 11:02:36",48742,5,3598281,"5e3adfc595ff562fbdd130fa","Edge 89.0.774.75","retrieval_b1",2,"SS5",5,2480.04000000219,"poutine.png",1,1,0,"recon_trial","SS5",1,1,"pred","grocery store.png",2,4,"poutine.png",NA,NA,NA
"13/04/2021 15:02:36","13/04/2021 11:02:38",48742,5,3598281,"5e3adfc595ff562fbdd130fa","Edge 89.0.774.75","retrieval_b1",2,"SS5",6,2280.33500000311,"mushrooms.png",1,1,0,"recon_trial","SS5",1,1,"pred","grocery store.png",3,3,"mushrooms.png",NA,NA,NA
"13/04/2021 15:02:38","13/04/2021 11:02:40",48742,5,3598281,"5e3adfc595ff562fbdd130fa","Edge 89.0.774.75","retrieval_b1",2,"SS5",7,1977.63000000123,"onion.png",1,1,0,"recon_trial","SS5",1,1,"pred","grocery store.png",4,4,"onion.png",NA,NA,NA
"13/04/2021 15:02:41","13/04/2021 11:02:44",48742,5,3598281,"5e3adfc595ff562fbdd130fa","Edge 89.0.774.75","retrieval_b1",2,"SS5",8,3891.97499999864,"broccoli.png",1,1,0,"recon_trial","SS5",1,1,"pred","grocery store.png",5,2,"broccoli.png",NA,NA,NA
"13/04/2021 15:02:43","13/04/2021 11:02:45",48742,5,3598281,"5e3adfc595ff562fbdd130fa","Edge 89.0.774.75","retrieval_b1",2,"SS5",9,1296.53500000131,"basil.png",1,1,0,"recon_trial","SS5",1,1,"pred","grocery store.png",6,3,"basil.png",NA,NA,NA
"13/04/2021 15:02:46","13/04/2021 11:02:49",48742,5,3598281,"5e3adfc595ff562fbdd130fa","Edge 89.0.774.75","retrieval_b1",2,"SS5",11,1983.2150000002,"pufferfish.png",1,1,0,"recon_trial","SS5",1,3,"rand","pet store.png",1,4,"pufferfish.png",NA,NA,NA
"13/04/2021 15:02:48","13/04/2021 11:02:51",48742,5,3598281,"5e3adfc595ff562fbdd130fa","Edge 89.0.774.75","retrieval_b1",2,"SS5",12,2029.5299999998,"dolphin.png",1,1,0,"recon_trial","SS5",1,3,"rand","pet store.png",2,3,"dolphin.png",NA,NA,NA
"13/04/2021 15:02:50","13/04/2021 11:02:53",48742,5,3598281,"5e3adfc595ff562fbdd130fa","Edge 89.0.774.75","retrieval_b1",2,"SS5",13,2326.64500000101,"stingray.png",1,1,0,"recon_trial","SS5",1,3,"rand","pet store.png",3,1,"stingray.png",NA,NA,NA
"13/04/2021 15:02:51","13/04/2021 11:02:54",48742,5,3598281,"5e3adfc595ff562fbdd130fa","Edge 89.0.774.75","retrieval_b1",2,"SS5",14,1133.34000000032,"boar.png",1,0,0,"recon_trial","SS5",1,3,"rand","pet store.png",4,2,"crocodile.png",NA,NA,NA
"13/04/2021 15:02:55","13/04/2021 11:02:57",48742,5,3598281,"5e3adfc595ff562fbdd130fa","Edge 89.0.774.75","retrieval_b1",2,"SS5",15,3242.38999999943,"crocodile.png",1,0,0,"recon_trial","SS5",1,3,"rand","pet store.png",5,1,"boar.png",NA,NA,NA
"13/04/2021 15:02:56","13/04/2021 11:02:58",48742,5,3598281,"5e3adfc595ff562fbdd130fa","Edge 89.0.774.75","retrieval_b1",2,"SS5",16,961.584999997285,"llama.png",1,1,0,"recon_trial","SS5",1,3,"rand","pet store.png",6,3,"llama.png",NA,NA,NA
"13/04/2021 15:06:33","13/04/2021 11:06:36",48742,5,3598281,"5e3adfc595ff562fbdd130fa","Edge 89.0.774.75","retrieval_b2",2,"SS5",11,2871.34499999956,"bettafish.png",1,1,0,"recon_trial","SS5",2,2,"rand","pet store.png",1,2,"bettafish.png",NA,NA,NA
"13/04/2021 15:06:36","13/04/2021 11:06:39",48742,5,3598281,"5e3adfc595ff562fbdd130fa","Edge 89.0.774.75","retrieval_b2",2,"SS5",12,2771.39999999781,"chameleon.png",1,1,0,"recon_trial","SS5",2,2,"rand","pet store.png",2,4,"chameleon.png",NA,NA,NA
"13/04/2021 15:06:39","13/04/2021 11:06:41",48742,5,3598281,"5e3adfc595ff562fbdd130fa","Edge 89.0.774.75","retrieval_b2",2,"SS5",13,2544.43999999785,"octopus.png",1,1,0,"recon_trial","SS5",2,2,"rand","pet store.png",3,3,"octopus.png",NA,NA,NA
"13/04/2021 15:06:40","13/04/2021 11:06:42",48742,5,3598281,"5e3adfc595ff562fbdd130fa","Edge 89.0.774.75","retrieval_b2",2,"SS5",14,1058.23499999678,"ladybug.png",1,1,0,"recon_trial","SS5",2,2,"rand","pet store.png",4,1,"ladybug.png",NA,NA,NA
"13/04/2021 15:06:41","13/04/2021 11:06:44",48742,5,3598281,"5e3adfc595ff562fbdd130fa","Edge 89.0.774.75","retrieval_b2",2,"SS5",15,1770.51499999652,"gorilla.png",1,1,0,"recon_trial","SS5",2,2,"rand","pet store.png",5,3,"gorilla.png",NA,NA,NA
"13/04/2021 15:06:43","13/04/2021 11:06:45",48742,5,3598281,"5e3adfc595ff562fbdd130fa","Edge 89.0.774.75","retrieval_b2",2,"SS5",16,1058.42000000121,"killerwhale.png",1,1,0,"recon_trial","SS5",2,2,"rand","pet store.png",6,4,"killerwhale.png",NA,NA,NA
"13/04/2021 15:06:46","13/04/2021 11:06:49",48742,5,3598281,"5e3adfc595ff562fbdd130fa","Edge 89.0.774.75","retrieval_b2",2,"SS5",4,2542.77000000002,"peanutbutter.png",1,1,0,"recon_trial","SS5",2,1,"pred","grocery store.png",1,1,"peanutbutter.png",NA,NA,NA
"13/04/2021 15:06:48","13/04/2021 11:06:50",48742,5,3598281,"5e3adfc595ff562fbdd130fa","Edge 89.0.774.75","retrieval_b2",2,"SS5",5,1213.22499999951,"acaibowl.png",1,1,0,"recon_trial","SS5",2,1,"pred","grocery store.png",2,4,"acaibowl.png",NA,NA,NA
"13/04/2021 15:06:52","13/04/2021 11:06:55",48742,5,3598281,"5e3adfc595ff562fbdd130fa","Edge 89.0.774.75","retrieval_b2",2,"SS5",6,4631.85000000522,"clams.png",1,1,0,"recon_trial","SS5",2,1,"pred","grocery store.png",3,3,"clams.png",NA,NA,NA
"13/04/2021 15:06:54","13/04/2021 11:06:57",48742,5,3598281,"5e3adfc595ff562fbdd130fa","Edge 89.0.774.75","retrieval_b2",2,"SS5",7,2024.22500000102,"gummybears.png",1,1,0,"recon_trial","SS5",2,1,"pred","grocery store.png",4,4,"gummybears.png",NA,NA,NA
"13/04/2021 15:06:55","13/04/2021 11:06:58",48742,5,3598281,"5e3adfc595ff562fbdd130fa","Edge 89.0.774.75","retrieval_b2",2,"SS5",8,808.949999998731,"dragonfruit.png",1,1,0,"recon_trial","SS5",2,1,"pred","grocery store.png",5,2,"dragonfruit.png",NA,NA,NA
"13/04/2021 15:06:56","13/04/2021 11:06:59",48742,5,3598281,"5e3adfc595ff562fbdd130fa","Edge 89.0.774.75","retrieval_b2",2,"SS5",9,1175.28500000481,"cupnoodle.png",1,1,0,"recon_trial","SS5",2,1,"pred","grocery store.png",6,3,"cupnoodle.png",NA,NA,NA
"13/04/2021 15:10:21","13/04/2021 11:10:24",48742,5,3598281,"5e3adfc595ff562fbdd130fa","Edge 89.0.774.75","retrieval_b3",2,"SS5",4,3538.42499999882,"orange.png",1,1,0,"recon_trial","SS5",3,2,"pred","grocery store.png",1,1,"orange.png",NA,NA,NA
"13/04/2021 15:10:23","13/04/2021 11:10:26",48742,5,3598281,"5e3adfc595ff562fbdd130fa","Edge 89.0.774.75","retrieval_b3",2,"SS5",5,1859.57000000053,"lychee.png",1,1,0,"recon_trial","SS5",3,2,"pred","grocery store.png",2,4,"lychee.png",NA,NA,NA
"13/04/2021 15:10:26","13/04/2021 11:10:29",48742,5,3598281,"5e3adfc595ff562fbdd130fa","Edge 89.0.774.75","retrieval_b3",2,"SS5",6,3488.48500000167,"cookedchicken.png",1,0,0,"recon_trial","SS5",3,2,"pred","grocery store.png",3,3,"popcorn.png",NA,NA,NA
"13/04/2021 15:10:31","13/04/2021 11:10:34",48742,5,3598281,"5e3adfc595ff562fbdd130fa","Edge 89.0.774.75","retrieval_b3",2,"SS5",7,4738.89999999665,"popcorn.png",1,0,0,"recon_trial","SS5",3,2,"pred","grocery store.png",4,4,"cookedchicken.png",NA,NA,NA
"13/04/2021 15:10:32","13/04/2021 11:10:35",48742,5,3598281,"5e3adfc595ff562fbdd130fa","Edge 89.0.774.75","retrieval_b3",2,"SS5",8,1206.18000000104,"strawberries.png",1,1,0,"recon_trial","SS5",3,2,"pred","grocery store.png",5,2,"strawberries.png",NA,NA,NA
"13/04/2021 15:10:33","13/04/2021 11:10:36",48742,5,3598281,"5e3adfc595ff562fbdd130fa","Edge 89.0.774.75","retrieval_b3",2,"SS5",9,672.194999999192,"kiwi.png",1,1,0,"recon_trial","SS5",3,2,"pred","grocery store.png",6,3,"kiwi.png",NA,NA,NA
"13/04/2021 15:10:38","13/04/2021 11:10:41",48742,5,3598281,"5e3adfc595ff562fbdd130fa","Edge 89.0.774.75","retrieval_b3",2,"SS5",11,3163.65000000224,"zebra.png",1,1,0,"recon_trial","SS5",3,1,"rand","pet store.png",1,2,"zebra.png",NA,NA,NA
"13/04/2021 15:10:41","13/04/2021 11:10:44",48742,5,3598281,"5e3adfc595ff562fbdd130fa","Edge 89.0.774.75","retrieval_b3",2,"SS5",12,2550.900000002,"turtle.png",1,1,0,"recon_trial","SS5",3,1,"rand","pet store.png",2,4,"turtle.png",NA,NA,NA
"13/04/2021 15:10:42","13/04/2021 11:10:45",48742,5,3598281,"5e3adfc595ff562fbdd130fa","Edge 89.0.774.75","retrieval_b3",2,"SS5",13,1125.67499999568,"chicken.png",1,1,0,"recon_trial","SS5",3,1,"rand","pet store.png",3,3,"chicken.png",NA,NA,NA
"13/04/2021 15:10:44","13/04/2021 11:10:47",48742,5,3598281,"5e3adfc595ff562fbdd130fa","Edge 89.0.774.75","retrieval_b3",2,"SS5",14,1920.78000000038,"redpanda.png",1,0,0,"recon_trial","SS5",3,1,"rand","pet store.png",4,1,"lemur.png",NA,NA,NA
"13/04/2021 15:10:46","13/04/2021 11:10:48",48742,5,3598281,"5e3adfc595ff562fbdd130fa","Edge 89.0.774.75","retrieval_b3",2,"SS5",15,1657.28999999556,"lemur.png",1,0,0,"recon_trial","SS5",3,1,"rand","pet store.png",5,4,"sheep.png",NA,NA,NA
"13/04/2021 15:10:47","13/04/2021 11:10:49",48742,5,3598281,"5e3adfc595ff562fbdd130fa","Edge 89.0.774.75","retrieval_b3",2,"SS5",16,958.654999994906,"sheep.png",1,0,0,"recon_trial","SS5",3,1,"rand","pet store.png",6,1,"redpanda.png",NA,NA,NA
"13/04/2021 15:13:59","13/04/2021 11:14:02",48742,5,3598281,"5e3adfc595ff562fbdd130fa","Edge 89.0.774.75","retrieval_b4",2,"SS5",4,2804.62499999703,"cheese.png",1,1,0,"recon_trial","SS5",4,3,"pred","grocery store.png",1,1,"cheese.png",NA,NA,NA
"13/04/2021 15:14:01","13/04/2021 11:14:03",48742,5,3598281,"5e3adfc595ff562fbdd130fa","Edge 89.0.774.75","retrieval_b4",2,"SS5",5,1318.65999999718,"taco.png",1,1,0,"recon_trial","SS5",4,3,"pred","grocery store.png",2,4,"taco.png",NA,NA,NA
"13/04/2021 15:14:05","13/04/2021 11:14:08",48742,5,3598281,"5e3adfc595ff562fbdd130fa","Edge 89.0.774.75","retrieval_b4",2,"SS5",6,4155.3899999999,"cereal.png",1,0,0,"recon_trial","SS5",4,3,"pred","grocery store.png",3,3,"walnuts.png",NA,NA,NA
"13/04/2021 15:14:06","13/04/2021 11:14:09",48742,5,3598281,"5e3adfc595ff562fbdd130fa","Edge 89.0.774.75","retrieval_b4",2,"SS5",7,1234.76500000106,"burrito.png",1,1,0,"recon_trial","SS5",4,3,"pred","grocery store.png",4,4,"burrito.png",NA,NA,NA
"13/04/2021 15:14:08","13/04/2021 11:14:11",48742,5,3598281,"5e3adfc595ff562fbdd130fa","Edge 89.0.774.75","retrieval_b4",2,"SS5",8,1800.53000000044,"walnuts.png",1,0,0,"recon_trial","SS5",4,3,"pred","grocery store.png",5,2,"cereal.png",NA,NA,NA
"13/04/2021 15:14:09","13/04/2021 11:14:12",48742,5,3598281,"5e3adfc595ff562fbdd130fa","Edge 89.0.774.75","retrieval_b4",2,"SS5",9,1160.12000000046,"pizza.png",1,1,0,"recon_trial","SS5",4,3,"pred","grocery store.png",6,3,"pizza.png",NA,NA,NA
"13/04/2021 15:14:16","13/04/2021 11:14:18",48742,5,3598281,"5e3adfc595ff562fbdd130fa","Edge 89.0.774.75","retrieval_b4",2,"SS5",11,2989.05499999819,"bear.png",1,1,0,"recon_trial","SS5",4,1,"rand","pet store.png",1,4,"bear.png",NA,NA,NA
"13/04/2021 15:14:22","13/04/2021 11:14:25",48742,5,3598281,"5e3adfc595ff562fbdd130fa","Edge 89.0.774.75","retrieval_b4",2,"SS5",12,6228.42500000115,"hedgehog.png",1,1,0,"recon_trial","SS5",4,1,"rand","pet store.png",2,2,"hedgehog.png",NA,NA,NA
"13/04/2021 15:14:23","13/04/2021 11:14:26",48742,5,3598281,"5e3adfc595ff562fbdd130fa","Edge 89.0.774.75","retrieval_b4",2,"SS5",13,1190.77000000107,"cat.png",1,1,0,"recon_trial","SS5",4,1,"rand","pet store.png",3,3,"cat.png",NA,NA,NA
"13/04/2021 15:14:25","13/04/2021 11:14:28",48742,5,3598281,"5e3adfc595ff562fbdd130fa","Edge 89.0.774.75","retrieval_b4",2,"SS5",14,1870.55500000133,"armadillo.png",1,1,0,"recon_trial","SS5",4,1,"rand","pet store.png",4,1,"armadillo.png",NA,NA,NA
"13/04/2021 15:14:27","13/04/2021 11:14:29",48742,5,3598281,"5e3adfc595ff562fbdd130fa","Edge 89.0.774.75","retrieval_b4",2,"SS5",15,1504.49500000104,"moose.png",1,1,0,"recon_trial","SS5",4,1,"rand","pet store.png",5,2,"moose.png",NA,NA,NA
"13/04/2021 15:14:28","13/04/2021 11:14:30",48742,5,3598281,"5e3adfc595ff562fbdd130fa","Edge 89.0.774.75","retrieval_b4",2,"SS5",16,1012.1599999984,"snake.png",1,1,0,"recon_trial","SS5",4,1,"rand","pet store.png",6,1,"snake.png",NA,NA,NA
"13/04/2021 15:18:51","13/04/2021 11:18:53",48742,5,3598281,"5e3adfc595ff562fbdd130fa","Edge 89.0.774.75","retrieval_b5",2,"SS5",11,4090.76500000083,"hermitcrab.png",1,1,0,"recon_trial","SS5",5,4,"rand","pet store.png",1,3,"hermitcrab.png",NA,NA,NA
"13/04/2021 15:18:56","13/04/2021 11:18:58",48742,5,3598281,"5e3adfc595ff562fbdd130fa","Edge 89.0.774.75","retrieval_b5",2,"SS5",12,5164.87999999663,"bloodhound.png",1,1,0,"recon_trial","SS5",5,4,"rand","pet store.png",2,4,"bloodhound.png",NA,NA,NA
"13/04/2021 15:18:58","13/04/2021 11:19:01",48742,5,3598281,"5e3adfc595ff562fbdd130fa","Edge 89.0.774.75","retrieval_b5",2,"SS5",13,2674.4949999993,"crow.png",1,0,0,"recon_trial","SS5",5,4,"rand","pet store.png",3,2,"cuttlefish.png",NA,NA,NA
"13/04/2021 15:19:00","13/04/2021 11:19:03",48742,5,3598281,"5e3adfc595ff562fbdd130fa","Edge 89.0.774.75","retrieval_b5",2,"SS5",14,1685.65999999555,"cow.png",1,1,0,"recon_trial","SS5",5,4,"rand","pet store.png",4,1,"cow.png",NA,NA,NA
"13/04/2021 15:19:01","13/04/2021 11:19:04",48742,5,3598281,"5e3adfc595ff562fbdd130fa","Edge 89.0.774.75","retrieval_b5",2,"SS5",15,1300.54999999993,"cuttlefish.png",1,0,0,"recon_trial","SS5",5,4,"rand","pet store.png",5,4,"crow.png",NA,NA,NA
"13/04/2021 15:19:03","13/04/2021 11:19:05",48742,5,3598281,"5e3adfc595ff562fbdd130fa","Edge 89.0.774.75","retrieval_b5",2,"SS5",16,1102.33499999595,"rhino.png",1,1,0,"recon_trial","SS5",5,4,"rand","pet store.png",6,1,"rhino.png",NA,NA,NA
"13/04/2021 15:19:08","13/04/2021 11:19:11",48742,5,3598281,"5e3adfc595ff562fbdd130fa","Edge 89.0.774.75","retrieval_b5",2,"SS5",4,3868.24999999953,"dumplings.png",1,1,0,"recon_trial","SS5",5,2,"pred","grocery store.png",1,1,"dumplings.png",NA,NA,NA
"13/04/2021 15:19:09","13/04/2021 11:19:12",48742,5,3598281,"5e3adfc595ff562fbdd130fa","Edge 89.0.774.75","retrieval_b5",2,"SS5",5,1230.34000000189,"coconut.png",1,1,0,"recon_trial","SS5",5,2,"pred","grocery store.png",2,4,"coconut.png",NA,NA,NA
"13/04/2021 15:19:19","13/04/2021 11:19:22",48742,5,3598281,"5e3adfc595ff562fbdd130fa","Edge 89.0.774.75","retrieval_b5",2,"SS5",6,9801.76999999821,"apple.png",1,1,0,"recon_trial","SS5",5,2,"pred","grocery store.png",3,3,"apple.png",NA,NA,NA
"13/04/2021 15:19:21","13/04/2021 11:19:24",48742,5,3598281,"5e3adfc595ff562fbdd130fa","Edge 89.0.774.75","retrieval_b5",2,"SS5",7,2139.86999999906,"rice.png",1,1,0,"recon_trial","SS5",5,2,"pred","grocery store.png",4,4,"rice.png",NA,NA,NA
"13/04/2021 15:19:23","13/04/2021 11:19:26",48742,5,3598281,"5e3adfc595ff562fbdd130fa","Edge 89.0.774.75","retrieval_b5",2,"SS5",8,1446.25999999698,"chocolatemilk.png",1,1,0,"recon_trial","SS5",5,2,"pred","grocery store.png",5,2,"chocolatemilk.png",NA,NA,NA
"13/04/2021 15:19:24","13/04/2021 11:19:27",48742,5,3598281,"5e3adfc595ff562fbdd130fa","Edge 89.0.774.75","retrieval_b5",2,"SS5",9,1067.27999999566,"pancakes.png",1,1,0,"recon_trial","SS5",5,2,"pred","grocery store.png",6,3,"pancakes.png",NA,NA,NA
"13/04/2021 15:22:44","13/04/2021 11:22:47",48742,5,3598281,"5e3adfc595ff562fbdd130fa","Edge 89.0.774.75","retrieval_b6",2,"SS5",4,2356.41999999643,"cake.png",1,1,0,"recon_trial","SS5",6,4,"pred","grocery store.png",1,1,"cake.png",NA,NA,NA
"13/04/2021 15:22:46","13/04/2021 11:22:48",48742,5,3598281,"5e3adfc595ff562fbdd130fa","Edge 89.0.774.75","retrieval_b6",2,"SS5",5,1434.24999999843,"muffin.png",1,1,0,"recon_trial","SS5",6,4,"pred","grocery store.png",2,4,"muffin.png",NA,NA,NA
"13/04/2021 15:22:55","13/04/2021 11:22:58",48742,5,3598281,"5e3adfc595ff562fbdd130fa","Edge 89.0.774.75","retrieval_b6",2,"SS5",6,9496.10499999835,"edamame.png",1,0,0,"recon_trial","SS5",6,4,"pred","grocery store.png",3,3,"pretzel.png",NA,NA,NA
"13/04/2021 15:22:57","13/04/2021 11:22:59",48742,5,3598281,"5e3adfc595ff562fbdd130fa","Edge 89.0.774.75","retrieval_b6",2,"SS5",7,1314.93999999657,"pretzel.png",1,0,0,"recon_trial","SS5",6,4,"pred","grocery store.png",4,4,"edamame.png",NA,NA,NA
"13/04/2021 15:22:58","13/04/2021 11:23:01",48742,5,3598281,"5e3adfc595ff562fbdd130fa","Edge 89.0.774.75","retrieval_b6",2,"SS5",8,1496.46000000212,"salad.png",1,1,0,"recon_trial","SS5",6,4,"pred","grocery store.png",5,2,"salad.png",NA,NA,NA
"13/04/2021 15:22:59","13/04/2021 11:23:02",48742,5,3598281,"5e3adfc595ff562fbdd130fa","Edge 89.0.774.75","retrieval_b6",2,"SS5",9,681.160000000091,"hummus.png",1,1,0,"recon_trial","SS5",6,4,"pred","grocery store.png",6,3,"hummus.png",NA,NA,NA
"13/04/2021 15:23:04","13/04/2021 11:23:07",48742,5,3598281,"5e3adfc595ff562fbdd130fa","Edge 89.0.774.75","retrieval_b6",2,"SS5",11,4131.00500000292,"ostrich.png",1,1,0,"recon_trial","SS5",6,3,"rand","pet store.png",1,4,"ostrich.png",NA,NA,NA
"13/04/2021 15:23:06","13/04/2021 11:23:08",48742,5,3598281,"5e3adfc595ff562fbdd130fa","Edge 89.0.774.75","retrieval_b6",2,"SS5",12,1572.78499999666,"goose.png",1,1,0,"recon_trial","SS5",6,3,"rand","pet store.png",2,2,"goose.png",NA,NA,NA
"13/04/2021 15:23:07","13/04/2021 11:23:10",48742,5,3598281,"5e3adfc595ff562fbdd130fa","Edge 89.0.774.75","retrieval_b6",2,"SS5",13,1387.93499999883,"emu.png",1,1,0,"recon_trial","SS5",6,3,"rand","pet store.png",3,3,"emu.png",NA,NA,NA
"13/04/2021 15:23:10","13/04/2021 11:23:12",48742,5,3598281,"5e3adfc595ff562fbdd130fa","Edge 89.0.774.75","retrieval_b6",2,"SS5",14,2564.01000000187,"walrus.png",1,1,0,"recon_trial","SS5",6,3,"rand","pet store.png",4,1,"walrus.png",NA,NA,NA
"13/04/2021 15:23:11","13/04/2021 11:23:14",48742,5,3598281,"5e3adfc595ff562fbdd130fa","Edge 89.0.774.75","retrieval_b6",2,"SS5",15,1213.64999999787,"tiger.png",1,1,0,"recon_trial","SS5",6,3,"rand","pet store.png",5,3,"tiger.png",NA,NA,NA
"13/04/2021 15:23:12","13/04/2021 11:23:15",48742,5,3598281,"5e3adfc595ff562fbdd130fa","Edge 89.0.774.75","retrieval_b6",2,"SS5",16,1329.29500000319,"platypus.png",1,1,0,"recon_trial","SS5",6,3,"rand","pet store.png",6,2,"platypus.png",NA,NA,NA
"13/04/2021 15:26:36","13/04/2021 11:26:38",48742,5,3598281,"5e3adfc595ff562fbdd130fa","Edge 89.0.774.75","retrieval_b7",2,"SS5",4,2556.52499999997,"bakedpotato.png",1,1,0,"recon_trial","SS5",7,3,"pred","grocery store.png",1,1,"bakedpotato.png",NA,NA,NA
"13/04/2021 15:26:38","13/04/2021 11:26:41",48742,5,3598281,"5e3adfc595ff562fbdd130fa","Edge 89.0.774.75","retrieval_b7",2,"SS5",5,2283.38500000245,"cinnamon.png",1,1,0,"recon_trial","SS5",7,3,"pred","grocery store.png",2,4,"cinnamon.png",NA,NA,NA
"13/04/2021 15:26:40","13/04/2021 11:26:42",48742,5,3598281,"5e3adfc595ff562fbdd130fa","Edge 89.0.774.75","retrieval_b7",2,"SS5",6,1400.80999999918,"chocolate.png",1,1,0,"recon_trial","SS5",7,3,"pred","grocery store.png",3,3,"chocolate.png",NA,NA,NA
"13/04/2021 15:26:41","13/04/2021 11:26:44",48742,5,3598281,"5e3adfc595ff562fbdd130fa","Edge 89.0.774.75","retrieval_b7",2,"SS5",7,1476.324999996,"artichoke.png",1,1,0,"recon_trial","SS5",7,3,"pred","grocery store.png",4,4,"artichoke.png",NA,NA,NA
"13/04/2021 15:26:42","13/04/2021 11:26:45",48742,5,3598281,"5e3adfc595ff562fbdd130fa","Edge 89.0.774.75","retrieval_b7",2,"SS5",8,1104.7550000003,"cherries.png",1,1,0,"recon_trial","SS5",7,3,"pred","grocery store.png",5,2,"cherries.png",NA,NA,NA
"13/04/2021 15:26:43","13/04/2021 11:26:46",48742,5,3598281,"5e3adfc595ff562fbdd130fa","Edge 89.0.774.75","retrieval_b7",2,"SS5",9,799.320000005537,"pork.png",1,1,0,"recon_trial","SS5",7,3,"pred","grocery store.png",6,3,"pork.png",NA,NA,NA
"13/04/2021 15:26:48","13/04/2021 11:26:51",48742,5,3598281,"5e3adfc595ff562fbdd130fa","Edge 89.0.774.75","retrieval_b7",2,"SS5",11,3645.17499999783,"koala.png",1,1,0,"recon_trial","SS5",7,4,"rand","pet store.png",1,3,"koala.png",NA,NA,NA
"13/04/2021 15:26:49","13/04/2021 11:26:52",48742,5,3598281,"5e3adfc595ff562fbdd130fa","Edge 89.0.774.75","retrieval_b7",2,"SS5",12,1452.42000000144,"grasshopper.png",1,1,0,"recon_trial","SS5",7,4,"rand","pet store.png",2,1,"grasshopper.png",NA,NA,NA
"13/04/2021 15:26:53","13/04/2021 11:26:55",48742,5,3598281,"5e3adfc595ff562fbdd130fa","Edge 89.0.774.75","retrieval_b7",2,"SS5",13,3272.68999999797,"kangaroo.png",1,1,0,"recon_trial","SS5",7,4,"rand","pet store.png",3,4,"kangaroo.png",NA,NA,NA
"13/04/2021 15:26:54","13/04/2021 11:26:57",48742,5,3598281,"5e3adfc595ff562fbdd130fa","Edge 89.0.774.75","retrieval_b7",2,"SS5",14,1618.24999999953,"surgeonfish.png",1,1,0,"recon_trial","SS5",7,4,"rand","pet store.png",4,2,"surgeonfish.png",NA,NA,NA
"13/04/2021 15:26:56","13/04/2021 11:26:58",48742,5,3598281,"5e3adfc595ff562fbdd130fa","Edge 89.0.774.75","retrieval_b7",2,"SS5",15,1414.0849999967,"tortoise.png",1,1,0,"recon_trial","SS5",7,4,"rand","pet store.png",5,4,"tortoise.png",NA,NA,NA
"13/04/2021 15:26:57","13/04/2021 11:27:00",48742,5,3598281,"5e3adfc595ff562fbdd130fa","Edge 89.0.774.75","retrieval_b7",2,"SS5",16,1180.48499999713,"butterfly.png",1,1,0,"recon_trial","SS5",7,4,"rand","pet store.png",6,1,"butterfly.png",NA,NA,NA
"13/04/2021 15:30:16","13/04/2021 11:30:19",48742,5,3598281,"5e3adfc595ff562fbdd130fa","Edge 89.0.774.75","retrieval_b8",2,"SS5",11,4610.59999999998,"toucan.png",1,1,0,"recon_trial","SS5",8,2,"rand","pet store.png",1,3,"toucan.png",NA,NA,NA
"13/04/2021 15:30:19","13/04/2021 11:30:21",48742,5,3598281,"5e3adfc595ff562fbdd130fa","Edge 89.0.774.75","retrieval_b8",2,"SS5",12,2862.02000000048,"chimp.png",1,0,0,"recon_trial","SS5",8,2,"rand","pet store.png",2,4,"pangolin.png",NA,NA,NA
"13/04/2021 15:30:21","13/04/2021 11:30:23",48742,5,3598281,"5e3adfc595ff562fbdd130fa","Edge 89.0.774.75","retrieval_b8",2,"SS5",13,1850.695000001,"pangolin.png",1,0,0,"recon_trial","SS5",8,2,"rand","pet store.png",3,2,"chimp.png",NA,NA,NA
"13/04/2021 15:30:25","13/04/2021 11:30:27",48742,5,3598281,"5e3adfc595ff562fbdd130fa","Edge 89.0.774.75","retrieval_b8",2,"SS5",14,4028.87499999633,"goat.png",1,1,0,"recon_trial","SS5",8,2,"rand","pet store.png",4,4,"goat.png",NA,NA,NA
"13/04/2021 15:30:26","13/04/2021 11:30:29",48742,5,3598281,"5e3adfc595ff562fbdd130fa","Edge 89.0.774.75","retrieval_b8",2,"SS5",15,1509.48499999504,"penguin.png",1,1,0,"recon_trial","SS5",8,2,"rand","pet store.png",5,1,"penguin.png",NA,NA,NA
"13/04/2021 15:30:27","13/04/2021 11:30:30",48742,5,3598281,"5e3adfc595ff562fbdd130fa","Edge 89.0.774.75","retrieval_b8",2,"SS5",16,875.804999996035,"goldenretriever.png",1,1,0,"recon_trial","SS5",8,2,"rand","pet store.png",6,2,"goldenretriever.png",NA,NA,NA
"13/04/2021 15:30:32","13/04/2021 11:30:34",48742,5,3598281,"5e3adfc595ff562fbdd130fa","Edge 89.0.774.75","retrieval_b8",2,"SS5",4,3029.03499999957,"celery.png",1,1,0,"recon_trial","SS5",8,4,"pred","grocery store.png",1,1,"celery.png",NA,NA,NA
"13/04/2021 15:30:33","13/04/2021 11:30:36",48742,5,3598281,"5e3adfc595ff562fbdd130fa","Edge 89.0.774.75","retrieval_b8",2,"SS5",5,1174.42499999743,"pie.png",1,1,0,"recon_trial","SS5",8,4,"pred","grocery store.png",2,4,"pie.png",NA,NA,NA
"13/04/2021 15:30:34","13/04/2021 11:30:37",48742,5,3598281,"5e3adfc595ff562fbdd130fa","Edge 89.0.774.75","retrieval_b8",2,"SS5",6,1211.26000000368,"cupcake.png",1,1,0,"recon_trial","SS5",8,4,"pred","grocery store.png",3,3,"cupcake.png",NA,NA,NA
"13/04/2021 15:30:38","13/04/2021 11:30:41",48742,5,3598281,"5e3adfc595ff562fbdd130fa","Edge 89.0.774.75","retrieval_b8",2,"SS5",7,4112.92500000127,"hotdog.png",1,1,0,"recon_trial","SS5",8,4,"pred","grocery store.png",4,4,"hotdog.png",NA,NA,NA
"13/04/2021 15:30:39","13/04/2021 11:30:42",48742,5,3598281,"5e3adfc595ff562fbdd130fa","Edge 89.0.774.75","retrieval_b8",2,"SS5",8,683.774999997695,"starfruit.png",1,1,0,"recon_trial","SS5",8,4,"pred","grocery store.png",5,2,"starfruit.png",NA,NA,NA
"13/04/2021 15:30:40","13/04/2021 11:30:43",48742,5,3598281,"5e3adfc595ff562fbdd130fa","Edge 89.0.774.75","retrieval_b8",2,"SS5",9,1128.92499999725,"raspberries.png",1,1,0,"recon_trial","SS5",8,4,"pred","grocery store.png",6,3,"raspberries.png",NA,NA,NA
"13/04/2021 15:47:53","13/04/2021 08:47:53",48742,5,3598452,"5f556bd46e6c4c93a5a90c77","Chrome 89.0.4389.114","retrieval_b1",2,"SS8",11,14361.0100000005,"raspberries.png",1,0,0,"recon_trial","SS8",1,3,"rand","grocery store.png",1,4,"grapes.png",NA,NA,NA
"13/04/2021 15:47:59","13/04/2021 08:47:59",48742,5,3598452,"5f556bd46e6c4c93a5a90c77","Chrome 89.0.4389.114","retrieval_b1",2,"SS8",12,6214.89000000292,"pineapple.png",1,0,0,"recon_trial","SS8",1,3,"rand","grocery store.png",2,3,"jalapeno.png",NA,NA,NA
"13/04/2021 15:48:02","13/04/2021 08:48:02",48742,5,3598452,"5f556bd46e6c4c93a5a90c77","Chrome 89.0.4389.114","retrieval_b1",2,"SS8",13,2767.54999999685,"fortunecookie.png",1,0,0,"recon_trial","SS8",1,3,"rand","grocery store.png",3,1,"raspberries.png",NA,NA,NA
"13/04/2021 15:48:07","13/04/2021 08:48:07",48742,5,3598452,"5f556bd46e6c4c93a5a90c77","Chrome 89.0.4389.114","retrieval_b1",2,"SS8",14,5031.81000000041,"grapes.png",1,0,0,"recon_trial","SS8",1,3,"rand","grocery store.png",4,2,"pineapple.png",NA,NA,NA
"13/04/2021 15:48:10","13/04/2021 08:48:10",48742,5,3598452,"5f556bd46e6c4c93a5a90c77","Chrome 89.0.4389.114","retrieval_b1",2,"SS8",15,2679.52000000514,"jalapeno.png",1,0,0,"recon_trial","SS8",1,3,"rand","grocery store.png",5,1,"bakedpotato.png",NA,NA,NA
"13/04/2021 15:48:11","13/04/2021 08:48:10",48742,5,3598452,"5f556bd46e6c4c93a5a90c77","Chrome 89.0.4389.114","retrieval_b1",2,"SS8",16,886.860000005981,"bakedpotato.png",1,0,0,"recon_trial","SS8",1,3,"rand","grocery store.png",6,3,"fortunecookie.png",NA,NA,NA
"13/04/2021 15:48:24","13/04/2021 08:48:24",48742,5,3598452,"5f556bd46e6c4c93a5a90c77","Chrome 89.0.4389.114","retrieval_b1",2,"SS8",4,11288.115000003,"turkey.png",1,1,0,"recon_trial","SS8",1,4,"pred","pet store.png",1,3,"turkey.png",NA,NA,NA
"13/04/2021 15:48:26","13/04/2021 08:48:26",48742,5,3598452,"5f556bd46e6c4c93a5a90c77","Chrome 89.0.4389.114","retrieval_b1",2,"SS8",5,1571.08499999595,"fox.png",1,1,0,"recon_trial","SS8",1,4,"pred","pet store.png",2,2,"fox.png",NA,NA,NA
"13/04/2021 15:48:27","13/04/2021 08:48:27",48742,5,3598452,"5f556bd46e6c4c93a5a90c77","Chrome 89.0.4389.114","retrieval_b1",2,"SS8",6,905.389999999898,"cheetah.png",1,0,0,"recon_trial","SS8",1,4,"pred","pet store.png",3,4,"toucan.png",NA,NA,NA
"13/04/2021 15:48:28","13/04/2021 08:48:28",48742,5,3598452,"5f556bd46e6c4c93a5a90c77","Chrome 89.0.4389.114","retrieval_b1",2,"SS8",7,908.620000001974,"pig.png",1,0,0,"recon_trial","SS8",1,4,"pred","pet store.png",4,2,"canadiangoose.png",NA,NA,NA
"13/04/2021 15:48:29","13/04/2021 08:48:29",48742,5,3598452,"5f556bd46e6c4c93a5a90c77","Chrome 89.0.4389.114","retrieval_b1",2,"SS8",8,1094.68000000197,"canadiangoose.png",1,0,0,"recon_trial","SS8",1,4,"pred","pet store.png",5,1,"pig.png",NA,NA,NA
"13/04/2021 15:48:30","13/04/2021 08:48:30",48742,5,3598452,"5f556bd46e6c4c93a5a90c77","Chrome 89.0.4389.114","retrieval_b1",2,"SS8",9,774.155000006431,"toucan.png",1,0,0,"recon_trial","SS8",1,4,"pred","pet store.png",6,4,"cheetah.png",NA,NA,NA
"13/04/2021 15:54:13","13/04/2021 08:54:13",48742,5,3598452,"5f556bd46e6c4c93a5a90c77","Chrome 89.0.4389.114","retrieval_b2",2,"SS8",11,9692.81000000046,"caramelapple.png",1,1,0,"recon_trial","SS8",2,1,"rand","grocery store.png",1,2,"caramelapple.png",NA,NA,NA
"13/04/2021 15:54:19","13/04/2021 08:54:19",48742,5,3598452,"5f556bd46e6c4c93a5a90c77","Chrome 89.0.4389.114","retrieval_b2",2,"SS8",12,6590.62000000267,"walnuts.png",1,1,0,"recon_trial","SS8",2,1,"rand","grocery store.png",2,4,"walnuts.png",NA,NA,NA
"13/04/2021 15:54:29","13/04/2021 08:54:29",48742,5,3598452,"5f556bd46e6c4c93a5a90c77","Chrome 89.0.4389.114","retrieval_b2",2,"SS8",13,9590.62000000267,"gummybears.png",1,1,0,"recon_trial","SS8",2,1,"rand","grocery store.png",3,1,"gummybears.png",NA,NA,NA
"13/04/2021 15:54:44","13/04/2021 08:54:44",48742,5,3598452,"5f556bd46e6c4c93a5a90c77","Chrome 89.0.4389.114","retrieval_b2",2,"SS8",14,15006.995,NA,NA,0,0,"recon_trial","SS8",2,1,"rand","grocery store.png",4,3,"avocado.png",NA,NA,NA
"13/04/2021 15:54:50","13/04/2021 08:54:50",48742,5,3598452,"5f556bd46e6c4c93a5a90c77","Chrome 89.0.4389.114","retrieval_b2",2,"SS8",15,6151.23999999923,"avocado.png",1,0,0,"recon_trial","SS8",2,1,"rand","grocery store.png",5,1,"garlic.png",NA,NA,NA
"13/04/2021 15:54:52","13/04/2021 08:54:51",48742,5,3598452,"5f556bd46e6c4c93a5a90c77","Chrome 89.0.4389.114","retrieval_b2",2,"SS8",16,1294.34000000037,"garlic.png",1,0,0,"recon_trial","SS8",2,1,"rand","grocery store.png",6,4,"cabbage.png",NA,NA,NA
"13/04/2021 15:54:57","13/04/2021 08:54:57",48742,5,3598452,"5f556bd46e6c4c93a5a90c77","Chrome 89.0.4389.114","retrieval_b2",2,"SS8",4,4588.21999999782,"caterpillar.png",1,1,0,"recon_trial","SS8",2,3,"pred","pet store.png",1,3,"caterpillar.png",NA,NA,NA
"13/04/2021 15:55:01","13/04/2021 08:55:00",48742,5,3598452,"5f556bd46e6c4c93a5a90c77","Chrome 89.0.4389.114","retrieval_b2",2,"SS8",5,3421.55500000081,"turtle.png",1,0,0,"recon_trial","SS8",2,3,"pred","pet store.png",2,2,"crow.png",NA,NA,NA
"13/04/2021 15:55:02","13/04/2021 08:55:02",48742,5,3598452,"5f556bd46e6c4c93a5a90c77","Chrome 89.0.4389.114","retrieval_b2",2,"SS8",6,1062.85500000376,"crow.png",1,0,0,"recon_trial","SS8",2,3,"pred","pet store.png",3,4,"bat.png",NA,NA,NA
"13/04/2021 15:55:02","13/04/2021 08:55:02",48742,5,3598452,"5f556bd46e6c4c93a5a90c77","Chrome 89.0.4389.114","retrieval_b2",2,"SS8",7,662.875000001804,"ladybug.png",1,1,0,"recon_trial","SS8",2,3,"pred","pet store.png",4,2,"ladybug.png",NA,NA,NA
"13/04/2021 15:55:06","13/04/2021 08:55:06",48742,5,3598452,"5f556bd46e6c4c93a5a90c77","Chrome 89.0.4389.114","retrieval_b2",2,"SS8",8,3838.44500000123,"bat.png",1,0,0,"recon_trial","SS8",2,3,"pred","pet store.png",5,1,"turtle.png",NA,NA,NA
"13/04/2021 15:55:07","13/04/2021 08:55:07",48742,5,3598452,"5f556bd46e6c4c93a5a90c77","Chrome 89.0.4389.114","retrieval_b2",2,"SS8",9,872.465000000375,"bettafish.png",1,1,0,"recon_trial","SS8",2,3,"pred","pet store.png",6,4,"bettafish.png",NA,NA,NA
"13/04/2021 16:01:03","13/04/2021 09:01:03",48742,5,3598452,"5f556bd46e6c4c93a5a90c77","Chrome 89.0.4389.114","retrieval_b3",2,"SS8",11,5770.78999999503,"coconut.png",1,1,0,"recon_trial","SS8",3,2,"rand","grocery store.png",1,2,"coconut.png",NA,NA,NA
"13/04/2021 16:01:04","13/04/2021 09:01:04",48742,5,3598452,"5f556bd46e6c4c93a5a90c77","Chrome 89.0.4389.114","retrieval_b3",2,"SS8",12,1697.67500000307,"clams.png",1,0,0,"recon_trial","SS8",3,2,"rand","grocery store.png",2,1,"croissant.png",NA,NA,NA
"13/04/2021 16:01:06","13/04/2021 09:01:05",48742,5,3598452,"5f556bd46e6c4c93a5a90c77","Chrome 89.0.4389.114","retrieval_b3",2,"SS8",13,1120.78499999916,"popcorn.png",1,0,0,"recon_trial","SS8",3,2,"rand","grocery store.png",3,4,"cheese.png",NA,NA,NA
"13/04/2021 16:01:07","13/04/2021 09:01:06",48742,5,3598452,"5f556bd46e6c4c93a5a90c77","Chrome 89.0.4389.114","retrieval_b3",2,"SS8",14,982.259999997041,"croissant.png",1,0,0,"recon_trial","SS8",3,2,"rand","grocery store.png",4,3,"onion.png",NA,NA,NA
"13/04/2021 16:01:07","13/04/2021 09:01:07",48742,5,3598452,"5f556bd46e6c4c93a5a90c77","Chrome 89.0.4389.114","retrieval_b3",2,"SS8",15,505.799999998999,"cheese.png",1,0,0,"recon_trial","SS8",3,2,"rand","grocery store.png",5,4,"clams.png",NA,NA,NA
"13/04/2021 16:01:08","13/04/2021 09:01:08",48742,5,3598452,"5f556bd46e6c4c93a5a90c77","Chrome 89.0.4389.114","retrieval_b3",2,"SS8",16,757.810000002792,"onion.png",1,0,0,"recon_trial","SS8",3,2,"rand","grocery store.png",6,1,"popcorn.png",NA,NA,NA
"13/04/2021 16:01:16","13/04/2021 09:01:15",48742,5,3598452,"5f556bd46e6c4c93a5a90c77","Chrome 89.0.4389.114","retrieval_b3",2,"SS8",4,5804.55999999685,"zebra.png",1,0,0,"recon_trial","SS8",3,4,"pred","pet store.png",1,3,"rabbit.png",NA,NA,NA
"13/04/2021 16:01:17","13/04/2021 09:01:16",48742,5,3598452,"5f556bd46e6c4c93a5a90c77","Chrome 89.0.4389.114","retrieval_b3",2,"SS8",5,917.094999997062,"elephant.png",1,0,0,"recon_trial","SS8",3,4,"pred","pet store.png",2,2,"platypus.png",NA,NA,NA
"13/04/2021 16:01:17","13/04/2021 09:01:17",48742,5,3598452,"5f556bd46e6c4c93a5a90c77","Chrome 89.0.4389.114","retrieval_b3",2,"SS8",6,903.220000000147,"rat.png",1,1,0,"recon_trial","SS8",3,4,"pred","pet store.png",3,4,"rat.png",NA,NA,NA
"13/04/2021 16:01:18","13/04/2021 09:01:18",48742,5,3598452,"5f556bd46e6c4c93a5a90c77","Chrome 89.0.4389.114","retrieval_b3",2,"SS8",7,489.605000002484,"platypus.png",1,0,0,"recon_trial","SS8",3,4,"pred","pet store.png",4,2,"zebra.png",NA,NA,NA
"13/04/2021 16:01:19","13/04/2021 09:01:18",48742,5,3598452,"5f556bd46e6c4c93a5a90c77","Chrome 89.0.4389.114","retrieval_b3",2,"SS8",8,545.20500000217,"rabbit.png",1,0,0,"recon_trial","SS8",3,4,"pred","pet store.png",5,1,"elephant.png",NA,NA,NA
"13/04/2021 16:01:20","13/04/2021 09:01:20",48742,5,3598452,"5f556bd46e6c4c93a5a90c77","Chrome 89.0.4389.114","retrieval_b3",2,"SS8",9,1145.66999999806,"butterfly.png",1,1,0,"recon_trial","SS8",3,4,"pred","pet store.png",6,4,"butterfly.png",NA,NA,NA
"13/04/2021 16:05:19","13/04/2021 09:05:19",48742,5,3598452,"5f556bd46e6c4c93a5a90c77","Chrome 89.0.4389.114","retrieval_b4",2,"SS8",4,5688.71499999659,"squid.png",1,0,0,"recon_trial","SS8",4,1,"pred","pet store.png",1,3,"eagle.png",NA,NA,NA
"13/04/2021 16:05:21","13/04/2021 09:05:21",48742,5,3598452,"5f556bd46e6c4c93a5a90c77","Chrome 89.0.4389.114","retrieval_b4",2,"SS8",5,1721.24500000064,"mantis.png",1,0,0,"recon_trial","SS8",4,1,"pred","pet store.png",2,2,"squid.png",NA,NA,NA
"13/04/2021 16:05:23","13/04/2021 09:05:23",48742,5,3598452,"5f556bd46e6c4c93a5a90c77","Chrome 89.0.4389.114","retrieval_b4",2,"SS8",6,1857.31999999552,"penguin.png",1,0,0,"recon_trial","SS8",4,1,"pred","pet store.png",3,4,"mantis.png",NA,NA,NA
"13/04/2021 16:05:24","13/04/2021 09:05:24",48742,5,3598452,"5f556bd46e6c4c93a5a90c77","Chrome 89.0.4389.114","retrieval_b4",2,"SS8",7,1220.15500000271,"squid.png",1,0,0,"recon_trial","SS8",4,1,"pred","pet store.png",4,2,"deer.png",NA,NA,NA
"13/04/2021 16:05:25","13/04/2021 09:05:25",48742,5,3598452,"5f556bd46e6c4c93a5a90c77","Chrome 89.0.4389.114","retrieval_b4",2,"SS8",8,594.039999996312,"eagle.png",1,0,0,"recon_trial","SS8",4,1,"pred","pet store.png",5,1,"kangaroo.png",NA,NA,NA
"13/04/2021 16:05:25","13/04/2021 09:05:25",48742,5,3598452,"5f556bd46e6c4c93a5a90c77","Chrome 89.0.4389.114","retrieval_b4",2,"SS8",9,793.440000001283,"deer.png",1,0,0,"recon_trial","SS8",4,1,"pred","pet store.png",6,4,"penguin.png",NA,NA,NA
"13/04/2021 16:05:36","13/04/2021 09:05:36",48742,5,3598452,"5f556bd46e6c4c93a5a90c77","Chrome 89.0.4389.114","retrieval_b4",2,"SS8",11,8211.32000000216,"cookedchicken.png",1,0,0,"recon_trial","SS8",4,3,"rand","grocery store.png",1,4,"pork.png",NA,NA,NA
"13/04/2021 16:05:37","13/04/2021 09:05:37",48742,5,3598452,"5f556bd46e6c4c93a5a90c77","Chrome 89.0.4389.114","retrieval_b4",2,"SS8",12,728.609999998298,"pretzel.png",1,1,0,"recon_trial","SS8",4,3,"rand","grocery store.png",2,2,"pretzel.png",NA,NA,NA
"13/04/2021 16:05:37","13/04/2021 09:05:37",48742,5,3598452,"5f556bd46e6c4c93a5a90c77","Chrome 89.0.4389.114","retrieval_b4",2,"SS8",13,694.960000000719,"icecreamsandwich.png",1,0,0,"recon_trial","SS8",4,3,"rand","grocery store.png",3,3,"brusselsprouts.png",NA,NA,NA
"13/04/2021 16:05:38","13/04/2021 09:05:38",48742,5,3598452,"5f556bd46e6c4c93a5a90c77","Chrome 89.0.4389.114","retrieval_b4",2,"SS8",14,799.1949999996,"pork.png",1,0,0,"recon_trial","SS8",4,3,"rand","grocery store.png",4,1,"cookedchicken.png",NA,NA,NA
"13/04/2021 16:05:39","13/04/2021 09:05:39",48742,5,3598452,"5f556bd46e6c4c93a5a90c77","Chrome 89.0.4389.114","retrieval_b4",2,"SS8",15,1007.36000000325,"brusselsprouts.png",1,0,0,"recon_trial","SS8",4,3,"rand","grocery store.png",5,3,"pie.png",NA,NA,NA
"13/04/2021 16:05:40","13/04/2021 09:05:40",48742,5,3598452,"5f556bd46e6c4c93a5a90c77","Chrome 89.0.4389.114","retrieval_b4",2,"SS8",16,687.985000004119,"pie.png",1,0,0,"recon_trial","SS8",4,3,"rand","grocery store.png",6,2,"icecreamsandwich.png",NA,NA,NA
"13/04/2021 16:10:57","13/04/2021 09:10:57",48742,5,3598452,"5f556bd46e6c4c93a5a90c77","Chrome 89.0.4389.114","retrieval_b5",2,"SS8",4,8388.99999999558,"hermitcrab.png",1,0,0,"recon_trial","SS8",5,1,"pred","pet store.png",1,3,"bear.png",NA,NA,NA
"13/04/2021 16:10:58","13/04/2021 09:10:58",48742,5,3598452,"5f556bd46e6c4c93a5a90c77","Chrome 89.0.4389.114","retrieval_b5",2,"SS8",5,782.914999996137,"bear.png",1,0,0,"recon_trial","SS8",5,1,"pred","pet store.png",2,2,"hermitcrab.png",NA,NA,NA
"13/04/2021 16:10:58","13/04/2021 09:10:58",48742,5,3598452,"5f556bd46e6c4c93a5a90c77","Chrome 89.0.4389.114","retrieval_b5",2,"SS8",6,441.635000002861,"redpanda.png",1,0,0,"recon_trial","SS8",5,1,"pred","pet store.png",3,4,"lemur.png",NA,NA,NA
"13/04/2021 16:10:59","13/04/2021 09:10:59",48742,5,3598452,"5f556bd46e6c4c93a5a90c77","Chrome 89.0.4389.114","retrieval_b5",2,"SS8",7,849.139999998442,"lemur.png",1,0,0,"recon_trial","SS8",5,1,"pred","pet store.png",4,2,"cardinal.png",NA,NA,NA
"13/04/2021 16:11:02","13/04/2021 09:11:02",48742,5,3598452,"5f556bd46e6c4c93a5a90c77","Chrome 89.0.4389.114","retrieval_b5",2,"SS8",8,2736.87499999505,"hedgehog.png",1,1,0,"recon_trial","SS8",5,1,"pred","pet store.png",5,1,"hedgehog.png",NA,NA,NA
"13/04/2021 16:11:03","13/04/2021 09:11:03",48742,5,3598452,"5f556bd46e6c4c93a5a90c77","Chrome 89.0.4389.114","retrieval_b5",2,"SS8",9,798.280000002705,"cardinal.png",1,0,0,"recon_trial","SS8",5,1,"pred","pet store.png",6,4,"redpanda.png",NA,NA,NA
"13/04/2021 16:11:12","13/04/2021 09:11:12",48742,5,3598452,"5f556bd46e6c4c93a5a90c77","Chrome 89.0.4389.114","retrieval_b5",2,"SS8",11,6286.86999999627,"salad.png",1,0,0,"recon_trial","SS8",5,2,"rand","grocery store.png",1,2,"watermelon.png",NA,NA,NA
"13/04/2021 16:11:14","13/04/2021 09:11:14",48742,5,3598452,"5f556bd46e6c4c93a5a90c77","Chrome 89.0.4389.114","retrieval_b5",2,"SS8",12,1877.09500000346,"bacon.png",1,1,0,"recon_trial","SS8",5,2,"rand","grocery store.png",2,4,"bacon.png",NA,NA,NA
"13/04/2021 16:11:15","13/04/2021 09:11:15",48742,5,3598452,"5f556bd46e6c4c93a5a90c77","Chrome 89.0.4389.114","retrieval_b5",2,"SS8",13,775.674999997136,"burger.png",1,0,0,"recon_trial","SS8",5,2,"rand","grocery store.png",3,3,"ravioli.png",NA,NA,NA
"13/04/2021 16:11:16","13/04/2021 09:11:15",48742,5,3598452,"5f556bd46e6c4c93a5a90c77","Chrome 89.0.4389.114","retrieval_b5",2,"SS8",14,898.735000002489,"watermelon.png",1,0,0,"recon_trial","SS8",5,2,"rand","grocery store.png",4,1,"salad.png",NA,NA,NA
"13/04/2021 16:11:16","13/04/2021 09:11:16",48742,5,3598452,"5f556bd46e6c4c93a5a90c77","Chrome 89.0.4389.114","retrieval_b5",2,"SS8",15,557.509999998729,"cereal.png",1,1,0,"recon_trial","SS8",5,2,"rand","grocery store.png",5,4,"cereal.png",NA,NA,NA
"13/04/2021 16:11:18","13/04/2021 09:11:18",48742,5,3598452,"5f556bd46e6c4c93a5a90c77","Chrome 89.0.4389.114","retrieval_b5",2,"SS8",16,1459.13000000292,"ravioli.png",1,0,0,"recon_trial","SS8",5,2,"rand","grocery store.png",6,1,"burger.png",NA,NA,NA
"13/04/2021 16:14:57","13/04/2021 09:14:57",48742,5,3598452,"5f556bd46e6c4c93a5a90c77","Chrome 89.0.4389.114","retrieval_b6",2,"SS8",4,5607.82499999914,"killerwhale.png",1,1,0,"recon_trial","SS8",6,2,"pred","pet store.png",1,3,"killerwhale.png",NA,NA,NA
"13/04/2021 16:14:59","13/04/2021 09:14:59",48742,5,3598452,"5f556bd46e6c4c93a5a90c77","Chrome 89.0.4389.114","retrieval_b6",2,"SS8",5,2363.06499999773,"ostrich.png",1,1,0,"recon_trial","SS8",6,2,"pred","pet store.png",2,2,"ostrich.png",NA,NA,NA
"13/04/2021 16:15:00","13/04/2021 09:15:00",48742,5,3598452,"5f556bd46e6c4c93a5a90c77","Chrome 89.0.4389.114","retrieval_b6",2,"SS8",6,481.879999999364,"dragonfly.png",1,1,0,"recon_trial","SS8",6,2,"pred","pet store.png",3,4,"dragonfly.png",NA,NA,NA
"13/04/2021 16:15:02","13/04/2021 09:15:02",48742,5,3598452,"5f556bd46e6c4c93a5a90c77","Chrome 89.0.4389.114","retrieval_b6",2,"SS8",7,2065.98499999382,"iguana.png",1,0,0,"recon_trial","SS8",6,2,"pred","pet store.png",4,2,"hippo.png",NA,NA,NA
"13/04/2021 16:15:03","13/04/2021 09:15:03",48742,5,3598452,"5f556bd46e6c4c93a5a90c77","Chrome 89.0.4389.114","retrieval_b6",2,"SS8",8,843.755000001693,"hippo.png",1,0,0,"recon_trial","SS8",6,2,"pred","pet store.png",5,1,"armadillo.png",NA,NA,NA
"13/04/2021 16:15:04","13/04/2021 09:15:03",48742,5,3598452,"5f556bd46e6c4c93a5a90c77","Chrome 89.0.4389.114","retrieval_b6",2,"SS8",9,796.080000000075,"armadillo.png",1,0,0,"recon_trial","SS8",6,2,"pred","pet store.png",6,4,"iguana.png",NA,NA,NA
"13/04/2021 16:15:18","13/04/2021 09:15:18",48742,5,3598452,"5f556bd46e6c4c93a5a90c77","Chrome 89.0.4389.114","retrieval_b6",2,"SS8",11,10344.2149999973,"basil.png",1,0,0,"recon_trial","SS8",6,1,"rand","grocery store.png",1,2,"apple.png",NA,NA,NA
"13/04/2021 16:15:20","13/04/2021 09:15:20",48742,5,3598452,"5f556bd46e6c4c93a5a90c77","Chrome 89.0.4389.114","retrieval_b6",2,"SS8",12,2071.68999999703,"smores.png",1,0,0,"recon_trial","SS8",6,1,"rand","grocery store.png",2,1,"basil.png",NA,NA,NA
"13/04/2021 16:15:21","13/04/2021 09:15:21",48742,5,3598452,"5f556bd46e6c4c93a5a90c77","Chrome 89.0.4389.114","retrieval_b6",2,"SS8",13,1126.69499999902,"tomato.png",1,0,0,"recon_trial","SS8",6,1,"rand","grocery store.png",3,3,"smores.png",NA,NA,NA
"13/04/2021 16:15:22","13/04/2021 09:15:22",48742,5,3598452,"5f556bd46e6c4c93a5a90c77","Chrome 89.0.4389.114","retrieval_b6",2,"SS8",14,599.355000005744,"apple.png",1,0,0,"recon_trial","SS8",6,1,"rand","grocery store.png",4,4,"waffle.png",NA,NA,NA
"13/04/2021 16:15:23","13/04/2021 09:15:22",48742,5,3598452,"5f556bd46e6c4c93a5a90c77","Chrome 89.0.4389.114","retrieval_b6",2,"SS8",15,711.2599999964,"waffle.png",1,0,0,"recon_trial","SS8",6,1,"rand","grocery store.png",5,1,"oliveoil.png",NA,NA,NA
"13/04/2021 16:15:23","13/04/2021 09:15:23",48742,5,3598452,"5f556bd46e6c4c93a5a90c77","Chrome 89.0.4389.114","retrieval_b6",2,"SS8",16,587.039999998524,"oliveoil.png",1,0,0,"recon_trial","SS8",6,1,"rand","grocery store.png",6,4,"tomato.png",NA,NA,NA
"13/04/2021 16:19:16","13/04/2021 09:19:16",48742,5,3598452,"5f556bd46e6c4c93a5a90c77","Chrome 89.0.4389.114","retrieval_b7",2,"SS8",4,12242.4699999974,"lion.png",1,1,0,"recon_trial","SS8",7,3,"pred","pet store.png",1,3,"lion.png",NA,NA,NA
"13/04/2021 16:19:19","13/04/2021 09:19:19",48742,5,3598452,"5f556bd46e6c4c93a5a90c77","Chrome 89.0.4389.114","retrieval_b7",2,"SS8",5,2922.37500000192,"tiger.png",1,0,0,"recon_trial","SS8",7,3,"pred","pet store.png",2,2,"chicken.png",NA,NA,NA
"13/04/2021 16:19:23","13/04/2021 09:19:22",48742,5,3598452,"5f556bd46e6c4c93a5a90c77","Chrome 89.0.4389.114","retrieval_b7",2,"SS8",6,3613.37999999523,"pangolin.png",1,0,0,"recon_trial","SS8",7,3,"pred","pet store.png",3,4,"beetle.png",NA,NA,NA
"13/04/2021 16:19:24","13/04/2021 09:19:23",48742,5,3598452,"5f556bd46e6c4c93a5a90c77","Chrome 89.0.4389.114","retrieval_b7",2,"SS8",7,1050.73999999877,"beetle.png",1,0,0,"recon_trial","SS8",7,3,"pred","pet store.png",4,2,"tiger.png",NA,NA,NA
"13/04/2021 16:19:24","13/04/2021 09:19:24",48742,5,3598452,"5f556bd46e6c4c93a5a90c77","Chrome 89.0.4389.114","retrieval_b7",2,"SS8",8,661.079999998037,"sheep.png",1,0,0,"recon_trial","SS8",7,3,"pred","pet store.png",5,1,"pangolin.png",NA,NA,NA
"13/04/2021 16:19:25","13/04/2021 09:19:25",48742,5,3598452,"5f556bd46e6c4c93a5a90c77","Chrome 89.0.4389.114","retrieval_b7",2,"SS8",9,774.445000002743,"chicken.png",1,0,0,"recon_trial","SS8",7,3,"pred","pet store.png",6,4,"sheep.png",NA,NA,NA
"13/04/2021 16:19:36","13/04/2021 09:19:36",48742,5,3598452,"5f556bd46e6c4c93a5a90c77","Chrome 89.0.4389.114","retrieval_b7",2,"SS8",11,6900.54000000237,"cherries.png",1,1,0,"recon_trial","SS8",7,4,"rand","grocery store.png",1,2,"cherries.png",NA,NA,NA
"13/04/2021 16:19:39","13/04/2021 09:19:38",48742,5,3598452,"5f556bd46e6c4c93a5a90c77","Chrome 89.0.4389.114","retrieval_b7",2,"SS8",12,2762.83500000136,"peaches.png",1,1,0,"recon_trial","SS8",7,4,"rand","grocery store.png",2,4,"peaches.png",NA,NA,NA
"13/04/2021 16:19:44","13/04/2021 09:19:44",48742,5,3598452,"5f556bd46e6c4c93a5a90c77","Chrome 89.0.4389.114","retrieval_b7",2,"SS8",13,5198.75999999931,"acornsquash.png",1,1,0,"recon_trial","SS8",7,4,"rand","grocery store.png",3,1,"acornsquash.png",NA,NA,NA
"13/04/2021 16:19:45","13/04/2021 09:19:45",48742,5,3598452,"5f556bd46e6c4c93a5a90c77","Chrome 89.0.4389.114","retrieval_b7",2,"SS8",14,1056.94000000221,"soup.png",1,1,0,"recon_trial","SS8",7,4,"rand","grocery store.png",4,3,"soup.png",NA,NA,NA
"13/04/2021 16:19:46","13/04/2021 09:19:46",48742,5,3598452,"5f556bd46e6c4c93a5a90c77","Chrome 89.0.4389.114","retrieval_b7",2,"SS8",15,831.129999998666,"poutine.png",1,0,0,"recon_trial","SS8",7,4,"rand","grocery store.png",5,4,"taco.png",NA,NA,NA
"13/04/2021 16:19:46","13/04/2021 09:19:46",48742,5,3598452,"5f556bd46e6c4c93a5a90c77","Chrome 89.0.4389.114","retrieval_b7",2,"SS8",16,613.069999999425,"taco.png",1,0,0,"recon_trial","SS8",7,4,"rand","grocery store.png",6,3,"poutine.png",NA,NA,NA
"13/04/2021 16:23:55","13/04/2021 09:23:55",48742,5,3598452,"5f556bd46e6c4c93a5a90c77","Chrome 89.0.4389.114","retrieval_b8",2,"SS8",11,3985.39499999606,"pancakes.png",1,1,0,"recon_trial","SS8",8,4,"rand","grocery store.png",1,2,"pancakes.png",NA,NA,NA
"13/04/2021 16:23:57","13/04/2021 09:23:56",48742,5,3598452,"5f556bd46e6c4c93a5a90c77","Chrome 89.0.4389.114","retrieval_b8",2,"SS8",12,1886.91000000108,"cantaloupe.png",1,1,0,"recon_trial","SS8",8,4,"rand","grocery store.png",2,3,"cantaloupe.png",NA,NA,NA
"13/04/2021 16:23:59","13/04/2021 09:23:59",48742,5,3598452,"5f556bd46e6c4c93a5a90c77","Chrome 89.0.4389.114","retrieval_b8",2,"SS8",13,2517.04000000609,"lychee.png",1,0,0,"recon_trial","SS8",8,4,"rand","grocery store.png",3,1,"hotdog.png",NA,NA,NA
"13/04/2021 16:24:01","13/04/2021 09:24:01",48742,5,3598452,"5f556bd46e6c4c93a5a90c77","Chrome 89.0.4389.114","retrieval_b8",2,"SS8",14,1745.34999999742,"corn.png",1,0,0,"recon_trial","SS8",8,4,"rand","grocery store.png",4,4,"lychee.png",NA,NA,NA
"13/04/2021 16:24:02","13/04/2021 09:24:01",48742,5,3598452,"5f556bd46e6c4c93a5a90c77","Chrome 89.0.4389.114","retrieval_b8",2,"SS8",15,753.544999999576,"hotdog.png",1,0,0,"recon_trial","SS8",8,4,"rand","grocery store.png",5,3,"corn.png",NA,NA,NA
"13/04/2021 16:24:02","13/04/2021 09:24:02",48742,5,3598452,"5f556bd46e6c4c93a5a90c77","Chrome 89.0.4389.114","retrieval_b8",2,"SS8",16,748.749999998836,"popcornshrimp.png",1,1,0,"recon_trial","SS8",8,4,"rand","grocery store.png",6,4,"popcornshrimp.png",NA,NA,NA
"13/04/2021 16:24:11","13/04/2021 09:24:11",48742,5,3598452,"5f556bd46e6c4c93a5a90c77","Chrome 89.0.4389.114","retrieval_b8",2,"SS8",4,7286.89499999746,"dolphin.png",1,0,0,"recon_trial","SS8",8,2,"pred","pet store.png",1,3,"rhino.png",NA,NA,NA
"13/04/2021 16:24:14","13/04/2021 09:24:13",48742,5,3598452,"5f556bd46e6c4c93a5a90c77","Chrome 89.0.4389.114","retrieval_b8",2,"SS8",5,2874.74000000657,"boar.png",1,0,0,"recon_trial","SS8",8,2,"pred","pet store.png",2,2,"dolphin.png",NA,NA,NA
"13/04/2021 16:24:14","13/04/2021 09:24:14",48742,5,3598452,"5f556bd46e6c4c93a5a90c77","Chrome 89.0.4389.114","retrieval_b8",2,"SS8",6,680.820000001404,"koala.png",1,0,0,"recon_trial","SS8",8,2,"pred","pet store.png",3,4,"cat.png",NA,NA,NA
"13/04/2021 16:24:19","13/04/2021 09:24:19",48742,5,3598452,"5f556bd46e6c4c93a5a90c77","Chrome 89.0.4389.114","retrieval_b8",2,"SS8",7,4374.58500000503,"cat.png",1,0,0,"recon_trial","SS8",8,2,"pred","pet store.png",4,2,"boar.png",NA,NA,NA
"13/04/2021 16:24:19","13/04/2021 09:24:19",48742,5,3598452,"5f556bd46e6c4c93a5a90c77","Chrome 89.0.4389.114","retrieval_b8",2,"SS8",8,626.179999999295,"vulture.png",1,0,0,"recon_trial","SS8",8,2,"pred","pet store.png",5,1,"koala.png",NA,NA,NA
"13/04/2021 16:24:20","13/04/2021 09:24:20",48742,5,3598452,"5f556bd46e6c4c93a5a90c77","Chrome 89.0.4389.114","retrieval_b8",2,"SS8",9,754.475000001548,"rhino.png",1,0,0,"recon_trial","SS8",8,2,"pred","pet store.png",6,4,"vulture.png",NA,NA,NA
"13/04/2021 23:33:18","13/04/2021 18:33:18",48742,5,3601810,"5a1f24609b760100013a8c1b","Chrome 89.0.4389.114","retrieval_b1",2,"SS6",4,2957.56000000074,"hummingbird.png",1,1,0,"recon_trial","SS6",1,4,"pred","pet store.png",1,1,"hummingbird.png",NA,NA,NA
"13/04/2021 23:33:20","13/04/2021 18:33:20",48742,5,3601810,"5a1f24609b760100013a8c1b","Chrome 89.0.4389.114","retrieval_b1",2,"SS6",5,2630.44499999978,"fox.png",1,1,0,"recon_trial","SS6",1,4,"pred","pet store.png",2,4,"fox.png",NA,NA,NA
"13/04/2021 23:33:23","13/04/2021 18:33:23",48742,5,3601810,"5a1f24609b760100013a8c1b","Chrome 89.0.4389.114","retrieval_b1",2,"SS6",6,2737.34500000046,"goose.png",1,0,0,"recon_trial","SS6",1,4,"pred","pet store.png",3,3,"whale.png",NA,NA,NA
"13/04/2021 23:33:26","13/04/2021 18:33:26",48742,5,3601810,"5a1f24609b760100013a8c1b","Chrome 89.0.4389.114","retrieval_b1",2,"SS6",7,2862.10500000016,"hippo.png",1,0,0,"recon_trial","SS6",1,4,"pred","pet store.png",4,4,"goose.png",NA,NA,NA
"13/04/2021 23:33:28","13/04/2021 18:33:28",48742,5,3601810,"5a1f24609b760100013a8c1b","Chrome 89.0.4389.114","retrieval_b1",2,"SS6",8,1726.66000000027,"shark.png",1,0,0,"recon_trial","SS6",1,4,"pred","pet store.png",5,2,"hippo.png",NA,NA,NA
"13/04/2021 23:33:29","13/04/2021 18:33:29",48742,5,3601810,"5a1f24609b760100013a8c1b","Chrome 89.0.4389.114","retrieval_b1",2,"SS6",9,835.715000000164,"whale.png",1,0,0,"recon_trial","SS6",1,4,"pred","pet store.png",6,3,"shark.png",NA,NA,NA
"13/04/2021 23:33:31","13/04/2021 18:33:31",48742,5,3601810,"5a1f24609b760100013a8c1b","Chrome 89.0.4389.114","retrieval_b1",2,"SS6",11,1381.9399999993,"fortunecookie.png",1,1,0,"recon_trial","SS6",1,3,"rand","grocery store.png",1,4,"fortunecookie.png",NA,NA,NA
"13/04/2021 23:33:33","13/04/2021 18:33:33",48742,5,3601810,"5a1f24609b760100013a8c1b","Chrome 89.0.4389.114","retrieval_b1",2,"SS6",12,1575.26000000053,"pineapple.png",1,1,0,"recon_trial","SS6",1,3,"rand","grocery store.png",2,3,"pineapple.png",NA,NA,NA
"13/04/2021 23:33:34","13/04/2021 18:33:34",48742,5,3601810,"5a1f24609b760100013a8c1b","Chrome 89.0.4389.114","retrieval_b1",2,"SS6",13,1610.45000000013,"guava.png",1,0,0,"recon_trial","SS6",1,3,"rand","grocery store.png",3,1,"kiwi.png",NA,NA,NA
"13/04/2021 23:33:36","13/04/2021 18:33:36",48742,5,3601810,"5a1f24609b760100013a8c1b","Chrome 89.0.4389.114","retrieval_b1",2,"SS6",14,1756.78499999958,"pancakes.png",1,1,0,"recon_trial","SS6",1,3,"rand","grocery store.png",4,2,"pancakes.png",NA,NA,NA
"13/04/2021 23:33:37","13/04/2021 18:33:37",48742,5,3601810,"5a1f24609b760100013a8c1b","Chrome 89.0.4389.114","retrieval_b1",2,"SS6",15,1333.79000000059,"burrito.png",1,0,0,"recon_trial","SS6",1,3,"rand","grocery store.png",5,1,"guava.png",NA,NA,NA
"13/04/2021 23:33:38","13/04/2021 18:33:38",48742,5,3601810,"5a1f24609b760100013a8c1b","Chrome 89.0.4389.114","retrieval_b1",2,"SS6",16,482.14999999982,"kiwi.png",1,0,0,"recon_trial","SS6",1,3,"rand","grocery store.png",6,3,"burrito.png",NA,NA,NA
"13/04/2021 23:37:09","13/04/2021 18:37:09",48742,5,3601810,"5a1f24609b760100013a8c1b","Chrome 89.0.4389.114","retrieval_b2",2,"SS6",11,2090.86500000012,"orange.png",1,1,0,"recon_trial","SS6",2,3,"rand","grocery store.png",1,3,"orange.png",NA,NA,NA
"13/04/2021 23:37:11","13/04/2021 18:37:11",48742,5,3601810,"5a1f24609b760100013a8c1b","Chrome 89.0.4389.114","retrieval_b2",2,"SS6",12,2185.0800000002,"cinnamon.png",1,1,0,"recon_trial","SS6",2,3,"rand","grocery store.png",2,4,"cinnamon.png",NA,NA,NA
"13/04/2021 23:37:14","13/04/2021 18:37:13",48742,5,3601810,"5a1f24609b760100013a8c1b","Chrome 89.0.4389.114","retrieval_b2",2,"SS6",13,2132.15000000037,"grapes.png",1,1,0,"recon_trial","SS6",2,3,"rand","grocery store.png",3,1,"grapes.png",NA,NA,NA
"13/04/2021 23:37:15","13/04/2021 18:37:15",48742,5,3601810,"5a1f24609b760100013a8c1b","Chrome 89.0.4389.114","retrieval_b2",2,"SS6",14,1815.56,"caramelapple.png",1,0,0,"recon_trial","SS6",2,3,"rand","grocery store.png",4,2,"coconut.png",NA,NA,NA
"13/04/2021 23:37:17","13/04/2021 18:37:17",48742,5,3601810,"5a1f24609b760100013a8c1b","Chrome 89.0.4389.114","retrieval_b2",2,"SS6",15,1648.14999999999,"coconut.png",1,0,0,"recon_trial","SS6",2,3,"rand","grocery store.png",5,1,"avocado.png",NA,NA,NA
"13/04/2021 23:37:18","13/04/2021 18:37:18",48742,5,3601810,"5a1f24609b760100013a8c1b","Chrome 89.0.4389.114","retrieval_b2",2,"SS6",16,766.325000000506,"avocado.png",1,0,0,"recon_trial","SS6",2,3,"rand","grocery store.png",6,4,"caramelapple.png",NA,NA,NA
"13/04/2021 23:37:20","13/04/2021 18:37:20",48742,5,3601810,"5a1f24609b760100013a8c1b","Chrome 89.0.4389.114","retrieval_b2",2,"SS6",4,1582.77499999986,"cat.png",1,1,0,"recon_trial","SS6",2,1,"pred","pet store.png",1,1,"cat.png",NA,NA,NA
"13/04/2021 23:37:22","13/04/2021 18:37:22",48742,5,3601810,"5a1f24609b760100013a8c1b","Chrome 89.0.4389.114","retrieval_b2",2,"SS6",5,1769.56000000064,"grasshopper.png",1,1,0,"recon_trial","SS6",2,1,"pred","pet store.png",2,4,"grasshopper.png",NA,NA,NA
"13/04/2021 23:37:24","13/04/2021 18:37:24",48742,5,3601810,"5a1f24609b760100013a8c1b","Chrome 89.0.4389.114","retrieval_b2",2,"SS6",6,1960.96000000034,"wolf.png",1,1,0,"recon_trial","SS6",2,1,"pred","pet store.png",3,3,"wolf.png",NA,NA,NA
"13/04/2021 23:37:26","13/04/2021 18:37:26",48742,5,3601810,"5a1f24609b760100013a8c1b","Chrome 89.0.4389.114","retrieval_b2",2,"SS6",7,1652.37999999954,"ferret.png",1,1,0,"recon_trial","SS6",2,1,"pred","pet store.png",4,4,"ferret.png",NA,NA,NA
"13/04/2021 23:37:27","13/04/2021 18:37:27",48742,5,3601810,"5a1f24609b760100013a8c1b","Chrome 89.0.4389.114","retrieval_b2",2,"SS6",8,1145.55500000006,"goldenretriever.png",1,1,0,"recon_trial","SS6",2,1,"pred","pet store.png",5,2,"goldenretriever.png",NA,NA,NA
"13/04/2021 23:37:28","13/04/2021 18:37:28",48742,5,3601810,"5a1f24609b760100013a8c1b","Chrome 89.0.4389.114","retrieval_b2",2,"SS6",9,574.61499999954,"elephant.png",1,1,0,"recon_trial","SS6",2,1,"pred","pet store.png",6,3,"elephant.png",NA,NA,NA
"13/04/2021 23:40:51","13/04/2021 18:40:51",48742,5,3601810,"5a1f24609b760100013a8c1b","Chrome 89.0.4389.114","retrieval_b3",2,"SS6",4,1699.01500000014,"bear.png",1,1,0,"recon_trial","SS6",3,4,"pred","pet store.png",1,1,"bear.png",NA,NA,NA
"13/04/2021 23:40:52","13/04/2021 18:40:52",48742,5,3601810,"5a1f24609b760100013a8c1b","Chrome 89.0.4389.114","retrieval_b3",2,"SS6",5,981.525000000147,"beetle.png",1,1,0,"recon_trial","SS6",3,4,"pred","pet store.png",2,4,"beetle.png",NA,NA,NA
"13/04/2021 23:40:54","13/04/2021 18:40:54",48742,5,3601810,"5a1f24609b760100013a8c1b","Chrome 89.0.4389.114","retrieval_b3",2,"SS6",6,2085.17500000016,"horse.png",1,1,0,"recon_trial","SS6",3,4,"pred","pet store.png",3,3,"horse.png",NA,NA,NA
"13/04/2021 23:40:57","13/04/2021 18:40:57",48742,5,3601810,"5a1f24609b760100013a8c1b","Chrome 89.0.4389.114","retrieval_b3",2,"SS6",7,3010.56499999959,"rhino.png",1,1,0,"recon_trial","SS6",3,4,"pred","pet store.png",4,4,"rhino.png",NA,NA,NA
"13/04/2021 23:40:59","13/04/2021 18:40:59",48742,5,3601810,"5a1f24609b760100013a8c1b","Chrome 89.0.4389.114","retrieval_b3",2,"SS6",8,1711.77999999964,"emu.png",1,1,0,"recon_trial","SS6",3,4,"pred","pet store.png",5,2,"emu.png",NA,NA,NA
"13/04/2021 23:40:59","13/04/2021 18:40:59",48742,5,3601810,"5a1f24609b760100013a8c1b","Chrome 89.0.4389.114","retrieval_b3",2,"SS6",9,432.584999999563,"iguana.png",1,1,0,"recon_trial","SS6",3,4,"pred","pet store.png",6,3,"iguana.png",NA,NA,NA
"13/04/2021 23:41:03","13/04/2021 18:41:03",48742,5,3601810,"5a1f24609b760100013a8c1b","Chrome 89.0.4389.114","retrieval_b3",2,"SS6",11,2740.23500000021,"cake.png",1,1,0,"recon_trial","SS6",3,2,"rand","grocery store.png",1,3,"cake.png",NA,NA,NA
"13/04/2021 23:41:05","13/04/2021 18:41:05",48742,5,3601810,"5a1f24609b760100013a8c1b","Chrome 89.0.4389.114","retrieval_b3",2,"SS6",12,1364.08500000016,"potatochips.png",1,1,0,"recon_trial","SS6",3,2,"rand","grocery store.png",2,4,"potatochips.png",NA,NA,NA
"13/04/2021 23:41:08","13/04/2021 18:41:08",48742,5,3601810,"5a1f24609b760100013a8c1b","Chrome 89.0.4389.114","retrieval_b3",2,"SS6",13,2973.5299999993,"nachos.png",1,1,0,"recon_trial","SS6",3,2,"rand","grocery store.png",3,2,"nachos.png",NA,NA,NA
"13/04/2021 23:41:10","13/04/2021 18:41:10",48742,5,3601810,"5a1f24609b760100013a8c1b","Chrome 89.0.4389.114","retrieval_b3",2,"SS6",14,1934.41499999972,"croissant.png",1,0,0,"recon_trial","SS6",3,2,"rand","grocery store.png",4,1,"hotdog.png",NA,NA,NA
"13/04/2021 23:41:11","13/04/2021 18:41:11",48742,5,3601810,"5a1f24609b760100013a8c1b","Chrome 89.0.4389.114","retrieval_b3",2,"SS6",15,1473.21999999986,"hotdog.png",1,0,0,"recon_trial","SS6",3,2,"rand","grocery store.png",5,4,"croissant.png",NA,NA,NA
"13/04/2021 23:41:12","13/04/2021 18:41:12",48742,5,3601810,"5a1f24609b760100013a8c1b","Chrome 89.0.4389.114","retrieval_b3",2,"SS6",16,1054.27500000042,"donut.png",1,1,0,"recon_trial","SS6",3,2,"rand","grocery store.png",6,1,"donut.png",NA,NA,NA
"13/04/2021 23:44:35","13/04/2021 18:44:35",48742,5,3601810,"5a1f24609b760100013a8c1b","Chrome 89.0.4389.114","retrieval_b4",2,"SS6",4,2122.97000000035,"goat.png",1,1,0,"recon_trial","SS6",4,2,"pred","pet store.png",1,1,"goat.png",NA,NA,NA
"13/04/2021 23:44:37","13/04/2021 18:44:37",48742,5,3601810,"5a1f24609b760100013a8c1b","Chrome 89.0.4389.114","retrieval_b4",2,"SS6",5,1939.72500000018,"badger.png",1,1,0,"recon_trial","SS6",4,2,"pred","pet store.png",2,4,"badger.png",NA,NA,NA
"13/04/2021 23:44:44","13/04/2021 18:44:44",48742,5,3601810,"5a1f24609b760100013a8c1b","Chrome 89.0.4389.114","retrieval_b4",2,"SS6",6,6925.53999999927,"pug.png",1,0,0,"recon_trial","SS6",4,2,"pred","pet store.png",3,3,"llama.png",NA,NA,NA
"13/04/2021 23:44:46","13/04/2021 18:44:46",48742,5,3601810,"5a1f24609b760100013a8c1b","Chrome 89.0.4389.114","retrieval_b4",2,"SS6",7,1854.85499999959,"llama.png",1,0,0,"recon_trial","SS6",4,2,"pred","pet store.png",4,4,"pug.png",NA,NA,NA
"13/04/2021 23:44:47","13/04/2021 18:44:47",48742,5,3601810,"5a1f24609b760100013a8c1b","Chrome 89.0.4389.114","retrieval_b4",2,"SS6",8,788.725000000341,"chimp.png",1,1,0,"recon_trial","SS6",4,2,"pred","pet store.png",5,2,"chimp.png",NA,NA,NA
"13/04/2021 23:44:47","13/04/2021 18:44:47",48742,5,3601810,"5a1f24609b760100013a8c1b","Chrome 89.0.4389.114","retrieval_b4",2,"SS6",9,581.334999999854,"frog.png",1,1,0,"recon_trial","SS6",4,2,"pred","pet store.png",6,3,"frog.png",NA,NA,NA
"13/04/2021 23:44:51","13/04/2021 18:44:51",48742,5,3601810,"5a1f24609b760100013a8c1b","Chrome 89.0.4389.114","retrieval_b4",2,"SS6",11,1996.08999999964,"poutine.png",1,1,0,"recon_trial","SS6",4,4,"rand","grocery store.png",1,4,"poutine.png",NA,NA,NA
"13/04/2021 23:44:52","13/04/2021 18:44:52",48742,5,3601810,"5a1f24609b760100013a8c1b","Chrome 89.0.4389.114","retrieval_b4",2,"SS6",12,1020.74499999981,"cereal.png",1,1,0,"recon_trial","SS6",4,4,"rand","grocery store.png",2,2,"cereal.png",NA,NA,NA
"13/04/2021 23:44:54","13/04/2021 18:44:53",48742,5,3601810,"5a1f24609b760100013a8c1b","Chrome 89.0.4389.114","retrieval_b4",2,"SS6",13,1448.08999999987,"beet.png",1,1,0,"recon_trial","SS6",4,4,"rand","grocery store.png",3,3,"beet.png",NA,NA,NA
"13/04/2021 23:44:57","13/04/2021 18:44:57",48742,5,3601810,"5a1f24609b760100013a8c1b","Chrome 89.0.4389.114","retrieval_b4",2,"SS6",14,3809.58999999984,"strawberries.png",1,1,0,"recon_trial","SS6",4,4,"rand","grocery store.png",4,1,"strawberries.png",NA,NA,NA
"13/04/2021 23:45:01","13/04/2021 18:45:01",48742,5,3601810,"5a1f24609b760100013a8c1b","Chrome 89.0.4389.114","retrieval_b4",2,"SS6",15,3727.14499999984,"starfruit.png",1,0,0,"recon_trial","SS6",4,4,"rand","grocery store.png",5,2,"ramen.png",NA,NA,NA
"13/04/2021 23:45:02","13/04/2021 18:45:01",48742,5,3601810,"5a1f24609b760100013a8c1b","Chrome 89.0.4389.114","retrieval_b4",2,"SS6",16,665.100000000166,"ramen.png",1,0,0,"recon_trial","SS6",4,4,"rand","grocery store.png",6,1,"starfruit.png",NA,NA,NA
"13/04/2021 23:49:29","13/04/2021 18:49:29",48742,5,3601810,"5a1f24609b760100013a8c1b","Chrome 89.0.4389.114","retrieval_b5",2,"SS6",4,1757.54499999948,"butterfly.png",1,1,0,"recon_trial","SS6",5,3,"pred","pet store.png",1,1,"butterfly.png",NA,NA,NA
"13/04/2021 23:49:30","13/04/2021 18:49:30",48742,5,3601810,"5a1f24609b760100013a8c1b","Chrome 89.0.4389.114","retrieval_b5",2,"SS6",5,975.985000000037,"chicken.png",1,1,0,"recon_trial","SS6",5,3,"pred","pet store.png",2,4,"chicken.png",NA,NA,NA
"13/04/2021 23:49:32","13/04/2021 18:49:32",48742,5,3601810,"5a1f24609b760100013a8c1b","Chrome 89.0.4389.114","retrieval_b5",2,"SS6",6,1489.29500000031,"chameleon.png",1,1,0,"recon_trial","SS6",5,3,"pred","pet store.png",3,3,"chameleon.png",NA,NA,NA
"13/04/2021 23:49:33","13/04/2021 18:49:33",48742,5,3601810,"5a1f24609b760100013a8c1b","Chrome 89.0.4389.114","retrieval_b5",2,"SS6",7,1066.05499999932,"hedgehog.png",1,1,0,"recon_trial","SS6",5,3,"pred","pet store.png",4,4,"hedgehog.png",NA,NA,NA
"13/04/2021 23:49:34","13/04/2021 18:49:34",48742,5,3601810,"5a1f24609b760100013a8c1b","Chrome 89.0.4389.114","retrieval_b5",2,"SS6",8,1171.91999999977,"rat.png",1,1,0,"recon_trial","SS6",5,3,"pred","pet store.png",5,2,"rat.png",NA,NA,NA
"13/04/2021 23:49:35","13/04/2021 18:49:35",48742,5,3601810,"5a1f24609b760100013a8c1b","Chrome 89.0.4389.114","retrieval_b5",2,"SS6",9,890.229999999974,"crocodile.png",1,1,0,"recon_trial","SS6",5,3,"pred","pet store.png",6,3,"crocodile.png",NA,NA,NA
"13/04/2021 23:49:38","13/04/2021 18:49:38",48742,5,3601810,"5a1f24609b760100013a8c1b","Chrome 89.0.4389.114","retrieval_b5",2,"SS6",11,1872.90500000017,"smores.png",1,1,0,"recon_trial","SS6",5,1,"rand","grocery store.png",1,2,"smores.png",NA,NA,NA
"13/04/2021 23:49:40","13/04/2021 18:49:39",48742,5,3601810,"5a1f24609b760100013a8c1b","Chrome 89.0.4389.114","retrieval_b5",2,"SS6",12,1385.47500000004,"raspberries.png",1,1,0,"recon_trial","SS6",5,1,"rand","grocery store.png",2,3,"raspberries.png",NA,NA,NA
"13/04/2021 23:49:41","13/04/2021 18:49:41",48742,5,3601810,"5a1f24609b760100013a8c1b","Chrome 89.0.4389.114","retrieval_b5",2,"SS6",13,1290.48499999953,"carrots.png",1,0,0,"recon_trial","SS6",5,1,"rand","grocery store.png",3,1,"pomegranate.png",NA,NA,NA
"13/04/2021 23:49:43","13/04/2021 18:49:43",48742,5,3601810,"5a1f24609b760100013a8c1b","Chrome 89.0.4389.114","retrieval_b5",2,"SS6",14,2201.20000000043,"peanutbutter.png",1,0,0,"recon_trial","SS6",5,1,"rand","grocery store.png",4,3,"carrots.png",NA,NA,NA
"13/04/2021 23:49:45","13/04/2021 18:49:45",48742,5,3601810,"5a1f24609b760100013a8c1b","Chrome 89.0.4389.114","retrieval_b5",2,"SS6",15,2051.38499999975,"muffin.png",1,0,0,"recon_trial","SS6",5,1,"rand","grocery store.png",5,4,"peanutbutter.png",NA,NA,NA
"13/04/2021 23:49:46","13/04/2021 18:49:46",48742,5,3601810,"5a1f24609b760100013a8c1b","Chrome 89.0.4389.114","retrieval_b5",2,"SS6",16,486.234999999397,"pomegranate.png",1,0,0,"recon_trial","SS6",5,1,"rand","grocery store.png",6,1,"muffin.png",NA,NA,NA
"13/04/2021 23:52:55","13/04/2021 18:52:55",48742,5,3601810,"5a1f24609b760100013a8c1b","Chrome 89.0.4389.114","retrieval_b6",2,"SS6",4,2103.37499999969,"penguin.png",1,1,0,"recon_trial","SS6",6,3,"pred","pet store.png",1,1,"penguin.png",NA,NA,NA
"13/04/2021 23:52:56","13/04/2021 18:52:56",48742,5,3601810,"5a1f24609b760100013a8c1b","Chrome 89.0.4389.114","retrieval_b6",2,"SS6",5,1075.86499999979,"squirrel.png",1,1,0,"recon_trial","SS6",6,3,"pred","pet store.png",2,4,"squirrel.png",NA,NA,NA
"13/04/2021 23:52:59","13/04/2021 18:52:59",48742,5,3601810,"5a1f24609b760100013a8c1b","Chrome 89.0.4389.114","retrieval_b6",2,"SS6",6,2387.83499999954,"cardinal.png",1,1,0,"recon_trial","SS6",6,3,"pred","pet store.png",3,3,"cardinal.png",NA,NA,NA
"13/04/2021 23:53:01","13/04/2021 18:53:01",48742,5,3601810,"5a1f24609b760100013a8c1b","Chrome 89.0.4389.114","retrieval_b6",2,"SS6",7,2755.26499999978,"killerwhale.png",1,1,0,"recon_trial","SS6",6,3,"pred","pet store.png",4,4,"killerwhale.png",NA,NA,NA
"13/04/2021 23:53:02","13/04/2021 18:53:02",48742,5,3601810,"5a1f24609b760100013a8c1b","Chrome 89.0.4389.114","retrieval_b6",2,"SS6",8,707.819999999629,"squid.png",1,1,0,"recon_trial","SS6",6,3,"pred","pet store.png",5,2,"squid.png",NA,NA,NA
"13/04/2021 23:53:03","13/04/2021 18:53:03",48742,5,3601810,"5a1f24609b760100013a8c1b","Chrome 89.0.4389.114","retrieval_b6",2,"SS6",9,811.949999999342,"octopus.png",1,1,0,"recon_trial","SS6",6,3,"pred","pet store.png",6,3,"octopus.png",NA,NA,NA
"13/04/2021 23:53:06","13/04/2021 18:53:06",48742,5,3601810,"5a1f24609b760100013a8c1b","Chrome 89.0.4389.114","retrieval_b6",2,"SS6",11,1979.98000000007,"peaches.png",1,1,0,"recon_trial","SS6",6,4,"rand","grocery store.png",1,3,"peaches.png",NA,NA,NA
"13/04/2021 23:53:07","13/04/2021 18:53:07",48742,5,3601810,"5a1f24609b760100013a8c1b","Chrome 89.0.4389.114","retrieval_b6",2,"SS6",12,645.345000000816,"brusselsprouts.png",1,1,0,"recon_trial","SS6",6,4,"rand","grocery store.png",2,1,"brusselsprouts.png",NA,NA,NA
"13/04/2021 23:53:09","13/04/2021 18:53:09",48742,5,3601810,"5a1f24609b760100013a8c1b","Chrome 89.0.4389.114","retrieval_b6",2,"SS6",13,2157.2900000001,"watermelon.png",1,1,0,"recon_trial","SS6",6,4,"rand","grocery store.png",3,4,"watermelon.png",NA,NA,NA
"13/04/2021 23:53:10","13/04/2021 18:53:10",48742,5,3601810,"5a1f24609b760100013a8c1b","Chrome 89.0.4389.114","retrieval_b6",2,"SS6",14,998.185000000376,"hummus.png",1,1,0,"recon_trial","SS6",6,4,"rand","grocery store.png",4,2,"hummus.png",NA,NA,NA
"13/04/2021 23:53:11","13/04/2021 18:53:11",48742,5,3601810,"5a1f24609b760100013a8c1b","Chrome 89.0.4389.114","retrieval_b6",2,"SS6",15,1052.46999999963,"milk.png",1,0,0,"recon_trial","SS6",6,4,"rand","grocery store.png",5,4,"mustard.png",NA,NA,NA
"13/04/2021 23:53:12","13/04/2021 18:53:12",48742,5,3601810,"5a1f24609b760100013a8c1b","Chrome 89.0.4389.114","retrieval_b6",2,"SS6",16,1116.57000000014,"mustard.png",1,0,0,"recon_trial","SS6",6,4,"rand","grocery store.png",6,1,"milk.png",NA,NA,NA
"13/04/2021 23:56:18","13/04/2021 18:56:18",48742,5,3601810,"5a1f24609b760100013a8c1b","Chrome 89.0.4389.114","retrieval_b7",2,"SS6",4,2468.52000000035,"cuttlefish.png",1,1,0,"recon_trial","SS6",7,1,"pred","pet store.png",1,1,"cuttlefish.png",NA,NA,NA
"13/04/2021 23:56:23","13/04/2021 18:56:23",48742,5,3601810,"5a1f24609b760100013a8c1b","Chrome 89.0.4389.114","retrieval_b7",2,"SS6",5,4683.13000000035,"hammerheadshark.png",1,1,0,"recon_trial","SS6",7,1,"pred","pet store.png",2,4,"hammerheadshark.png",NA,NA,NA
"13/04/2021 23:56:24","13/04/2021 18:56:24",48742,5,3601810,"5a1f24609b760100013a8c1b","Chrome 89.0.4389.114","retrieval_b7",2,"SS6",6,1380.57000000026,"ladybug.png",1,1,0,"recon_trial","SS6",7,1,"pred","pet store.png",3,3,"ladybug.png",NA,NA,NA
"13/04/2021 23:56:27","13/04/2021 18:56:27",48742,5,3601810,"5a1f24609b760100013a8c1b","Chrome 89.0.4389.114","retrieval_b7",2,"SS6",7,2327.25500000015,"pig.png",1,0,0,"recon_trial","SS6",7,1,"pred","pet store.png",4,4,"dragonfly.png",NA,NA,NA
"13/04/2021 23:56:28","13/04/2021 18:56:28",48742,5,3601810,"5a1f24609b760100013a8c1b","Chrome 89.0.4389.114","retrieval_b7",2,"SS6",8,740.579999999682,"ladybug.png",1,0,0,"recon_trial","SS6",7,1,"pred","pet store.png",5,2,"pig.png",NA,NA,NA
"13/04/2021 23:56:28","13/04/2021 18:56:28",48742,5,3601810,"5a1f24609b760100013a8c1b","Chrome 89.0.4389.114","retrieval_b7",2,"SS6",9,569.330000000264,"dragonfly.png",1,0,0,"recon_trial","SS6",7,1,"pred","pet store.png",6,3,"deer.png",NA,NA,NA
"13/04/2021 23:56:35","13/04/2021 18:56:35",48742,5,3601810,"5a1f24609b760100013a8c1b","Chrome 89.0.4389.114","retrieval_b7",2,"SS6",11,6035.55499999948,"jalapeno.png",1,1,0,"recon_trial","SS6",7,2,"rand","grocery store.png",1,2,"jalapeno.png",NA,NA,NA
"13/04/2021 23:56:38","13/04/2021 18:56:38",48742,5,3601810,"5a1f24609b760100013a8c1b","Chrome 89.0.4389.114","retrieval_b7",2,"SS6",12,2938.04500000078,"cabbage.png",1,1,0,"recon_trial","SS6",7,2,"rand","grocery store.png",2,3,"cabbage.png",NA,NA,NA
"13/04/2021 23:56:41","13/04/2021 18:56:41",48742,5,3601810,"5a1f24609b760100013a8c1b","Chrome 89.0.4389.114","retrieval_b7",2,"SS6",13,3124.31500000002,"onion.png",1,1,0,"recon_trial","SS6",7,2,"rand","grocery store.png",3,1,"onion.png",NA,NA,NA
"13/04/2021 23:56:44","13/04/2021 18:56:44",48742,5,3601810,"5a1f24609b760100013a8c1b","Chrome 89.0.4389.114","retrieval_b7",2,"SS6",14,2531.93499999998,"artichoke.png",1,1,0,"recon_trial","SS6",7,2,"rand","grocery store.png",4,4,"artichoke.png",NA,NA,NA
"13/04/2021 23:56:45","13/04/2021 18:56:45",48742,5,3601810,"5a1f24609b760100013a8c1b","Chrome 89.0.4389.114","retrieval_b7",2,"SS6",15,977.649999999812,"walnuts.png",1,1,0,"recon_trial","SS6",7,2,"rand","grocery store.png",5,1,"walnuts.png",NA,NA,NA
"13/04/2021 23:56:45","13/04/2021 18:56:45",48742,5,3601810,"5a1f24609b760100013a8c1b","Chrome 89.0.4389.114","retrieval_b7",2,"SS6",16,445.600000000013,"dragonfruit.png",1,1,0,"recon_trial","SS6",7,2,"rand","grocery store.png",6,3,"dragonfruit.png",NA,NA,NA
"14/04/2021 00:00:26","13/04/2021 19:00:26",48742,5,3601810,"5a1f24609b760100013a8c1b","Chrome 89.0.4389.114","retrieval_b8",2,"SS6",11,2075.31000000017,"oliveoil.png",1,1,0,"recon_trial","SS6",8,1,"rand","grocery store.png",1,3,"oliveoil.png",NA,NA,NA
"14/04/2021 00:00:28","13/04/2021 19:00:27",48742,5,3601810,"5a1f24609b760100013a8c1b","Chrome 89.0.4389.114","retrieval_b8",2,"SS6",12,1550.38499999955,"icecreamsandwich.png",1,1,0,"recon_trial","SS6",8,1,"rand","grocery store.png",2,2,"icecreamsandwich.png",NA,NA,NA
"14/04/2021 00:00:30","13/04/2021 19:00:30",48742,5,3601810,"5a1f24609b760100013a8c1b","Chrome 89.0.4389.114","retrieval_b8",2,"SS6",13,2473.08499999963,"cheese.png",1,1,0,"recon_trial","SS6",8,1,"rand","grocery store.png",3,4,"cheese.png",NA,NA,NA
"14/04/2021 00:00:34","13/04/2021 19:00:34",48742,5,3601810,"5a1f24609b760100013a8c1b","Chrome 89.0.4389.114","retrieval_b8",2,"SS6",14,4026.03499999987,"pizza.png",1,1,0,"recon_trial","SS6",8,1,"rand","grocery store.png",4,1,"pizza.png",NA,NA,NA
"14/04/2021 00:00:35","13/04/2021 19:00:35",48742,5,3601810,"5a1f24609b760100013a8c1b","Chrome 89.0.4389.114","retrieval_b8",2,"SS6",15,883.919999999307,"apple.png",1,1,0,"recon_trial","SS6",8,1,"rand","grocery store.png",5,2,"apple.png",NA,NA,NA
"14/04/2021 00:00:36","13/04/2021 19:00:36",48742,5,3601810,"5a1f24609b760100013a8c1b","Chrome 89.0.4389.114","retrieval_b8",2,"SS6",16,791.269999999713,"blackpepper.png",1,1,0,"recon_trial","SS6",8,1,"rand","grocery store.png",6,1,"blackpepper.png",NA,NA,NA
"14/04/2021 00:00:39","13/04/2021 19:00:39",48742,5,3601810,"5a1f24609b760100013a8c1b","Chrome 89.0.4389.114","retrieval_b8",2,"SS6",4,1765.10000000053,"snail.png",1,1,0,"recon_trial","SS6",8,2,"pred","pet store.png",1,1,"snail.png",NA,NA,NA
"14/04/2021 00:00:40","13/04/2021 19:00:40",48742,5,3601810,"5a1f24609b760100013a8c1b","Chrome 89.0.4389.114","retrieval_b8",2,"SS6",5,952.559999999721,"panther.png",1,1,0,"recon_trial","SS6",8,2,"pred","pet store.png",2,4,"panther.png",NA,NA,NA
"14/04/2021 00:00:45","13/04/2021 19:00:45",48742,5,3601810,"5a1f24609b760100013a8c1b","Chrome 89.0.4389.114","retrieval_b8",2,"SS6",6,5626.68500000018,"cheetah.png",1,0,0,"recon_trial","SS6",8,2,"pred","pet store.png",3,3,"toad.png",NA,NA,NA
"14/04/2021 00:00:51","13/04/2021 19:00:51",48742,5,3601810,"5a1f24609b760100013a8c1b","Chrome 89.0.4389.114","retrieval_b8",2,"SS6",7,5454.41500000015,"giraffe.png",1,1,0,"recon_trial","SS6",8,2,"pred","pet store.png",4,4,"giraffe.png",NA,NA,NA
"14/04/2021 00:00:52","13/04/2021 19:00:51",48742,5,3601810,"5a1f24609b760100013a8c1b","Chrome 89.0.4389.114","retrieval_b8",2,"SS6",8,643.865000000005,"toad.png",1,0,0,"recon_trial","SS6",8,2,"pred","pet store.png",5,2,"cheetah.png",NA,NA,NA
"14/04/2021 00:00:53","13/04/2021 19:00:53",48742,5,3601810,"5a1f24609b760100013a8c1b","Chrome 89.0.4389.114","retrieval_b8",2,"SS6",9,1136.95999999982,"cow.png",1,1,0,"recon_trial","SS6",8,2,"pred","pet store.png",6,3,"cow.png",NA,NA,NA
"13/04/2021 22:32:06","13/04/2021 18:32:06",48742,5,3601662,"6035cf48ab65f735a5ebb489","Chrome 89.0.4389.114","retrieval_b1",2,"SS4",4,2455.47000004444,"boar.png",1,1,0,"recon_trial","SS4",1,2,"pred","pet store.png",1,3,"boar.png",NA,NA,NA
"13/04/2021 22:32:10","13/04/2021 18:32:10",48742,5,3601662,"6035cf48ab65f735a5ebb489","Chrome 89.0.4389.114","retrieval_b1",2,"SS4",5,3837.4199999962,"crab.png",1,1,0,"recon_trial","SS4",1,2,"pred","pet store.png",2,2,"crab.png",NA,NA,NA
"13/04/2021 22:32:16","13/04/2021 18:32:16",48742,5,3601662,"6035cf48ab65f735a5ebb489","Chrome 89.0.4389.114","retrieval_b1",2,"SS4",6,6225.99500010256,"chameleon.png",1,1,0,"recon_trial","SS4",1,2,"pred","pet store.png",3,4,"chameleon.png",NA,NA,NA
"13/04/2021 22:32:18","13/04/2021 18:32:18",48742,5,3601662,"6035cf48ab65f735a5ebb489","Chrome 89.0.4389.114","retrieval_b1",2,"SS4",7,2100.55499989539,"wolf.png",1,1,0,"recon_trial","SS4",1,2,"pred","pet store.png",4,2,"wolf.png",NA,NA,NA
"13/04/2021 22:32:20","13/04/2021 18:32:20",48742,5,3601662,"6035cf48ab65f735a5ebb489","Chrome 89.0.4389.114","retrieval_b1",2,"SS4",8,2023.66000006441,"ladybug.png",1,1,0,"recon_trial","SS4",1,2,"pred","pet store.png",5,1,"ladybug.png",NA,NA,NA
"13/04/2021 22:32:21","13/04/2021 18:32:21",48742,5,3601662,"6035cf48ab65f735a5ebb489","Chrome 89.0.4389.114","retrieval_b1",2,"SS4",9,459.495000075549,"frog.png",1,1,0,"recon_trial","SS4",1,2,"pred","pet store.png",6,4,"frog.png",NA,NA,NA
"13/04/2021 22:32:24","13/04/2021 18:32:24",48742,5,3601662,"6035cf48ab65f735a5ebb489","Chrome 89.0.4389.114","retrieval_b1",2,"SS4",11,2139.45999997668,"pork.png",1,1,0,"recon_trial","SS4",1,1,"rand","grocery store.png",1,2,"pork.png",NA,NA,NA
"13/04/2021 22:32:26","13/04/2021 18:32:26",48742,5,3601662,"6035cf48ab65f735a5ebb489","Chrome 89.0.4389.114","retrieval_b1",2,"SS4",12,1685.24000002071,"gummybears.png",1,1,0,"recon_trial","SS4",1,1,"rand","grocery store.png",2,1,"gummybears.png",NA,NA,NA
"13/04/2021 22:32:29","13/04/2021 18:32:29",48742,5,3601662,"6035cf48ab65f735a5ebb489","Chrome 89.0.4389.114","retrieval_b1",2,"SS4",13,3479.5799999265,"burrito.png",1,1,0,"recon_trial","SS4",1,1,"rand","grocery store.png",3,4,"burrito.png",NA,NA,NA
"13/04/2021 22:32:31","13/04/2021 18:32:31",48742,5,3601662,"6035cf48ab65f735a5ebb489","Chrome 89.0.4389.114","retrieval_b1",2,"SS4",14,1539.24499999266,"burger.png",1,1,0,"recon_trial","SS4",1,1,"rand","grocery store.png",4,3,"burger.png",NA,NA,NA
"13/04/2021 22:32:32","13/04/2021 18:32:32",48742,5,3601662,"6035cf48ab65f735a5ebb489","Chrome 89.0.4389.114","retrieval_b1",2,"SS4",15,1164.82499998529,"watermelon.png",1,1,0,"recon_trial","SS4",1,1,"rand","grocery store.png",5,1,"watermelon.png",NA,NA,NA
"13/04/2021 22:32:33","13/04/2021 18:32:32",48742,5,3601662,"6035cf48ab65f735a5ebb489","Chrome 89.0.4389.114","retrieval_b1",2,"SS4",16,616.574999992736,"kiwi.png",1,1,0,"recon_trial","SS4",1,1,"rand","grocery store.png",6,3,"kiwi.png",NA,NA,NA
"13/04/2021 22:36:08","13/04/2021 18:36:07",48742,5,3601662,"6035cf48ab65f735a5ebb489","Chrome 89.0.4389.114","retrieval_b2",2,"SS4",11,2761.98499999009,"ravioli.png",1,1,0,"recon_trial","SS4",2,3,"rand","grocery store.png",1,2,"ravioli.png",NA,NA,NA
"13/04/2021 22:36:10","13/04/2021 18:36:09",48742,5,3601662,"6035cf48ab65f735a5ebb489","Chrome 89.0.4389.114","retrieval_b2",2,"SS4",12,1998.00000002142,"raspberries.png",1,1,0,"recon_trial","SS4",2,3,"rand","grocery store.png",2,3,"raspberries.png",NA,NA,NA
"13/04/2021 22:36:15","13/04/2021 18:36:15",48742,5,3601662,"6035cf48ab65f735a5ebb489","Chrome 89.0.4389.114","retrieval_b2",2,"SS4",13,5377.87500000559,"popcorn.png",1,1,0,"recon_trial","SS4",2,3,"rand","grocery store.png",3,1,"popcorn.png",NA,NA,NA
"13/04/2021 22:36:20","13/04/2021 18:36:19",48742,5,3601662,"6035cf48ab65f735a5ebb489","Chrome 89.0.4389.114","retrieval_b2",2,"SS4",14,4675.36499991547,"chocolate.png",1,1,0,"recon_trial","SS4",2,3,"rand","grocery store.png",4,4,"chocolate.png",NA,NA,NA
"13/04/2021 22:36:20","13/04/2021 18:36:20",48742,5,3601662,"6035cf48ab65f735a5ebb489","Chrome 89.0.4389.114","retrieval_b2",2,"SS4",15,591.664999956265,"ramen.png",1,1,0,"recon_trial","SS4",2,3,"rand","grocery store.png",5,1,"ramen.png",NA,NA,NA
"13/04/2021 22:36:21","13/04/2021 18:36:21",48742,5,3601662,"6035cf48ab65f735a5ebb489","Chrome 89.0.4389.114","retrieval_b2",2,"SS4",16,479.525000089779,"caramelapple.png",1,1,0,"recon_trial","SS4",2,3,"rand","grocery store.png",6,3,"caramelapple.png",NA,NA,NA
"13/04/2021 22:36:25","13/04/2021 18:36:25",48742,5,3601662,"6035cf48ab65f735a5ebb489","Chrome 89.0.4389.114","retrieval_b2",2,"SS4",4,3386.33500004653,"hedgehog.png",1,1,0,"recon_trial","SS4",2,4,"pred","pet store.png",1,3,"hedgehog.png",NA,NA,NA
"13/04/2021 22:36:26","13/04/2021 18:36:26",48742,5,3601662,"6035cf48ab65f735a5ebb489","Chrome 89.0.4389.114","retrieval_b2",2,"SS4",5,967.230000067502,"crocodile.png",1,1,0,"recon_trial","SS4",2,4,"pred","pet store.png",2,2,"crocodile.png",NA,NA,NA
"13/04/2021 22:36:41","13/04/2021 18:36:40",48742,5,3601662,"6035cf48ab65f735a5ebb489","Chrome 89.0.4389.114","retrieval_b2",2,"SS4",6,14280.4049999686,"killerwhale.png",1,0,0,"recon_trial","SS4",2,4,"pred","pet store.png",3,4,"llama.png",NA,NA,NA
"13/04/2021 22:36:45","13/04/2021 18:36:45",48742,5,3601662,"6035cf48ab65f735a5ebb489","Chrome 89.0.4389.114","retrieval_b2",2,"SS4",7,4683.1049999455,"snake.png",1,1,0,"recon_trial","SS4",2,4,"pred","pet store.png",4,2,"snake.png",NA,NA,NA
"13/04/2021 22:36:46","13/04/2021 18:36:46",48742,5,3601662,"6035cf48ab65f735a5ebb489","Chrome 89.0.4389.114","retrieval_b2",2,"SS4",8,547.744999988936,"pelican.png",1,1,0,"recon_trial","SS4",2,4,"pred","pet store.png",5,1,"pelican.png",NA,NA,NA
"13/04/2021 22:36:46","13/04/2021 18:36:46",48742,5,3601662,"6035cf48ab65f735a5ebb489","Chrome 89.0.4389.114","retrieval_b2",2,"SS4",9,335.814999998547,"llama.png",1,0,0,"recon_trial","SS4",2,4,"pred","pet store.png",6,4,"killerwhale.png",NA,NA,NA
"13/04/2021 22:40:10","13/04/2021 18:40:10",48742,5,3601662,"6035cf48ab65f735a5ebb489","Chrome 89.0.4389.114","retrieval_b3",2,"SS4",4,2749.08500001766,"caterpillar.png",1,1,0,"recon_trial","SS4",3,2,"pred","pet store.png",1,3,"caterpillar.png",NA,NA,NA
"13/04/2021 22:40:16","13/04/2021 18:40:16",48742,5,3601662,"6035cf48ab65f735a5ebb489","Chrome 89.0.4389.114","retrieval_b3",2,"SS4",5,6468.59999990556,"stingray.png",1,1,0,"recon_trial","SS4",3,2,"pred","pet store.png",2,2,"stingray.png",NA,NA,NA
"13/04/2021 22:40:19","13/04/2021 18:40:18",48742,5,3601662,"6035cf48ab65f735a5ebb489","Chrome 89.0.4389.114","retrieval_b3",2,"SS4",6,2420.21999997087,"lemur.png",1,1,0,"recon_trial","SS4",3,2,"pred","pet store.png",3,4,"lemur.png",NA,NA,NA
"13/04/2021 22:40:24","13/04/2021 18:40:23",48742,5,3601662,"6035cf48ab65f735a5ebb489","Chrome 89.0.4389.114","retrieval_b3",2,"SS4",7,4770.57500008959,"goat.png",1,0,0,"recon_trial","SS4",3,2,"pred","pet store.png",4,2,"camel.png",NA,NA,NA
"13/04/2021 22:40:27","13/04/2021 18:40:27",48742,5,3601662,"6035cf48ab65f735a5ebb489","Chrome 89.0.4389.114","retrieval_b3",2,"SS4",8,3574.43000003695,"camel.png",1,0,0,"recon_trial","SS4",3,2,"pred","pet store.png",5,1,"ostrich.png",NA,NA,NA
"13/04/2021 22:40:28","13/04/2021 18:40:28",48742,5,3601662,"6035cf48ab65f735a5ebb489","Chrome 89.0.4389.114","retrieval_b3",2,"SS4",9,748.905000044033,"ostrich.png",1,0,0,"recon_trial","SS4",3,2,"pred","pet store.png",6,4,"goat.png",NA,NA,NA
"13/04/2021 22:40:32","13/04/2021 18:40:32",48742,5,3601662,"6035cf48ab65f735a5ebb489","Chrome 89.0.4389.114","retrieval_b3",2,"SS4",11,3399.53000005335,"carrots.png",1,1,0,"recon_trial","SS4",3,4,"rand","grocery store.png",1,2,"carrots.png",NA,NA,NA
"13/04/2021 22:40:38","13/04/2021 18:40:37",48742,5,3601662,"6035cf48ab65f735a5ebb489","Chrome 89.0.4389.114","retrieval_b3",2,"SS4",12,5228.18500001449,"mustard.png",1,1,0,"recon_trial","SS4",3,4,"rand","grocery store.png",2,4,"mustard.png",NA,NA,NA
"13/04/2021 22:40:39","13/04/2021 18:40:39",48742,5,3601662,"6035cf48ab65f735a5ebb489","Chrome 89.0.4389.114","retrieval_b3",2,"SS4",13,1382.57499993779,"croissant.png",1,1,0,"recon_trial","SS4",3,4,"rand","grocery store.png",3,3,"croissant.png",NA,NA,NA
"13/04/2021 22:40:41","13/04/2021 18:40:41",48742,5,3601662,"6035cf48ab65f735a5ebb489","Chrome 89.0.4389.114","retrieval_b3",2,"SS4",14,1813.3150000358,"coconut.png",1,1,0,"recon_trial","SS4",3,4,"rand","grocery store.png",4,1,"coconut.png",NA,NA,NA
"13/04/2021 22:40:41","13/04/2021 18:40:41",48742,5,3601662,"6035cf48ab65f735a5ebb489","Chrome 89.0.4389.114","retrieval_b3",2,"SS4",15,535.69500008598,"mushrooms.png",1,1,0,"recon_trial","SS4",3,4,"rand","grocery store.png",5,4,"mushrooms.png",NA,NA,NA
"13/04/2021 22:40:43","13/04/2021 18:40:42",48742,5,3601662,"6035cf48ab65f735a5ebb489","Chrome 89.0.4389.114","retrieval_b3",2,"SS4",16,1230.92499992345,"grapes.png",1,1,0,"recon_trial","SS4",3,4,"rand","grocery store.png",6,1,"grapes.png",NA,NA,NA
"13/04/2021 22:44:26","13/04/2021 18:44:26",48742,5,3601662,"6035cf48ab65f735a5ebb489","Chrome 89.0.4389.114","retrieval_b4",2,"SS4",4,3274.48500005994,"mantis.png",1,1,0,"recon_trial","SS4",4,1,"pred","pet store.png",1,3,"mantis.png",NA,NA,NA
"13/04/2021 22:44:28","13/04/2021 18:44:28",48742,5,3601662,"6035cf48ab65f735a5ebb489","Chrome 89.0.4389.114","retrieval_b4",2,"SS4",5,1780.94500000589,"moose.png",1,1,0,"recon_trial","SS4",4,1,"pred","pet store.png",2,2,"moose.png",NA,NA,NA
"13/04/2021 22:44:33","13/04/2021 18:44:33",48742,5,3601662,"6035cf48ab65f735a5ebb489","Chrome 89.0.4389.114","retrieval_b4",2,"SS4",6,5452.04999996349,"dolphin.png",1,1,0,"recon_trial","SS4",4,1,"pred","pet store.png",3,4,"dolphin.png",NA,NA,NA
"13/04/2021 22:44:37","13/04/2021 18:44:37",48742,5,3601662,"6035cf48ab65f735a5ebb489","Chrome 89.0.4389.114","retrieval_b4",2,"SS4",7,3725.21500010043,"dragonfly.png",1,1,0,"recon_trial","SS4",4,1,"pred","pet store.png",4,2,"dragonfly.png",NA,NA,NA
"13/04/2021 22:44:38","13/04/2021 18:44:38",48742,5,3601662,"6035cf48ab65f735a5ebb489","Chrome 89.0.4389.114","retrieval_b4",2,"SS4",8,786.384999984875,"hippo.png",1,1,0,"recon_trial","SS4",4,1,"pred","pet store.png",5,1,"hippo.png",NA,NA,NA
"13/04/2021 22:44:38","13/04/2021 18:44:38",48742,5,3601662,"6035cf48ab65f735a5ebb489","Chrome 89.0.4389.114","retrieval_b4",2,"SS4",9,616.485000005923,"cheetah.png",1,1,0,"recon_trial","SS4",4,1,"pred","pet store.png",6,4,"cheetah.png",NA,NA,NA
"13/04/2021 22:44:42","13/04/2021 18:44:42",48742,5,3601662,"6035cf48ab65f735a5ebb489","Chrome 89.0.4389.114","retrieval_b4",2,"SS4",11,2310.28500001412,"guava.png",1,1,0,"recon_trial","SS4",4,3,"rand","grocery store.png",1,4,"guava.png",NA,NA,NA
"13/04/2021 22:44:46","13/04/2021 18:44:46",48742,5,3601662,"6035cf48ab65f735a5ebb489","Chrome 89.0.4389.114","retrieval_b4",2,"SS4",12,3911.20999993291,"pie.png",1,1,0,"recon_trial","SS4",4,3,"rand","grocery store.png",2,2,"pie.png",NA,NA,NA
"13/04/2021 22:44:55","13/04/2021 18:44:54",48742,5,3601662,"6035cf48ab65f735a5ebb489","Chrome 89.0.4389.114","retrieval_b4",2,"SS4",13,8748.5699999379,"coffee.png",1,0,0,"recon_trial","SS4",4,3,"rand","grocery store.png",3,3,"avocado.png",NA,NA,NA
"13/04/2021 22:45:01","13/04/2021 18:45:01",48742,5,3601662,"6035cf48ab65f735a5ebb489","Chrome 89.0.4389.114","retrieval_b4",2,"SS4",14,6749.8149999883,"avocado.png",1,0,0,"recon_trial","SS4",4,3,"rand","grocery store.png",4,1,"rice.png",NA,NA,NA
"13/04/2021 22:45:02","13/04/2021 18:45:02",48742,5,3601662,"6035cf48ab65f735a5ebb489","Chrome 89.0.4389.114","retrieval_b4",2,"SS4",15,483.835000079125,"rice.png",1,0,0,"recon_trial","SS4",4,3,"rand","grocery store.png",5,3,"coffee.png",NA,NA,NA
"13/04/2021 22:45:02","13/04/2021 18:45:02",48742,5,3601662,"6035cf48ab65f735a5ebb489","Chrome 89.0.4389.114","retrieval_b4",2,"SS4",16,607.760000042617,"cupcake.png",1,1,0,"recon_trial","SS4",4,3,"rand","grocery store.png",6,2,"cupcake.png",NA,NA,NA
"13/04/2021 22:49:52","13/04/2021 18:49:52",48742,5,3601662,"6035cf48ab65f735a5ebb489","Chrome 89.0.4389.114","retrieval_b5",2,"SS4",11,9118.55000001378,"potatochips.png",1,0,0,"recon_trial","SS4",5,4,"rand","grocery store.png",1,4,"jalapeno.png",NA,NA,NA
"13/04/2021 22:49:53","13/04/2021 18:49:53",48742,5,3601662,"6035cf48ab65f735a5ebb489","Chrome 89.0.4389.114","retrieval_b5",2,"SS4",12,1224.14999990724,"jalapeno.png",1,0,0,"recon_trial","SS4",5,4,"rand","grocery store.png",2,3,"potatochips.png",NA,NA,NA
"13/04/2021 22:49:58","13/04/2021 18:49:58",48742,5,3601662,"6035cf48ab65f735a5ebb489","Chrome 89.0.4389.114","retrieval_b5",2,"SS4",13,4791.05499992147,"cheese.png",1,1,0,"recon_trial","SS4",5,4,"rand","grocery store.png",3,1,"cheese.png",NA,NA,NA
"13/04/2021 22:50:00","13/04/2021 18:50:00",48742,5,3601662,"6035cf48ab65f735a5ebb489","Chrome 89.0.4389.114","retrieval_b5",2,"SS4",14,1970.4999999376,"apple.png",1,1,0,"recon_trial","SS4",5,4,"rand","grocery store.png",4,2,"apple.png",NA,NA,NA
"13/04/2021 22:50:00","13/04/2021 18:50:00",48742,5,3601662,"6035cf48ab65f735a5ebb489","Chrome 89.0.4389.114","retrieval_b5",2,"SS4",15,439.940000069328,"edamame.png",1,1,0,"recon_trial","SS4",5,4,"rand","grocery store.png",5,1,"edamame.png",NA,NA,NA
"13/04/2021 22:50:01","13/04/2021 18:50:01",48742,5,3601662,"6035cf48ab65f735a5ebb489","Chrome 89.0.4389.114","retrieval_b5",2,"SS4",16,401.415000087582,"popcornshrimp.png",1,1,0,"recon_trial","SS4",5,4,"rand","grocery store.png",6,3,"popcornshrimp.png",NA,NA,NA
"13/04/2021 22:50:09","13/04/2021 18:50:09",48742,5,3601662,"6035cf48ab65f735a5ebb489","Chrome 89.0.4389.114","retrieval_b5",2,"SS4",4,7095.48000001814,"squirrel.png",1,0,0,"recon_trial","SS4",5,3,"pred","pet store.png",1,3,"panda.png",NA,NA,NA
"13/04/2021 22:50:13","13/04/2021 18:50:13",48742,5,3601662,"6035cf48ab65f735a5ebb489","Chrome 89.0.4389.114","retrieval_b5",2,"SS4",5,4121.00000004284,"horse.png",1,0,0,"recon_trial","SS4",5,3,"pred","pet store.png",2,2,"squirrel.png",NA,NA,NA
"13/04/2021 22:50:17","13/04/2021 18:50:17",48742,5,3601662,"6035cf48ab65f735a5ebb489","Chrome 89.0.4389.114","retrieval_b5",2,"SS4",6,3955.56499995291,"donkey.png",1,0,0,"recon_trial","SS4",5,3,"pred","pet store.png",3,4,"beetle.png",NA,NA,NA
"13/04/2021 22:50:22","13/04/2021 18:50:22",48742,5,3601662,"6035cf48ab65f735a5ebb489","Chrome 89.0.4389.114","retrieval_b5",2,"SS4",7,5380.40499994531,"panda.png",1,0,0,"recon_trial","SS4",5,3,"pred","pet store.png",4,2,"walrus.png",NA,NA,NA
"13/04/2021 22:50:24","13/04/2021 18:50:24",48742,5,3601662,"6035cf48ab65f735a5ebb489","Chrome 89.0.4389.114","retrieval_b5",2,"SS4",8,1945.82499994431,"walrus.png",1,0,0,"recon_trial","SS4",5,3,"pred","pet store.png",5,1,"donkey.png",NA,NA,NA
"13/04/2021 22:50:25","13/04/2021 18:50:25",48742,5,3601662,"6035cf48ab65f735a5ebb489","Chrome 89.0.4389.114","retrieval_b5",2,"SS4",9,605.830000014976,"beetle.png",1,0,0,"recon_trial","SS4",5,3,"pred","pet store.png",6,4,"horse.png",NA,NA,NA
"13/04/2021 22:54:13","13/04/2021 18:54:12",48742,5,3601662,"6035cf48ab65f735a5ebb489","Chrome 89.0.4389.114","retrieval_b6",2,"SS4",4,2421.78500001319,"bettafish.png",1,1,0,"recon_trial","SS4",6,3,"pred","pet store.png",1,3,"bettafish.png",NA,NA,NA
"13/04/2021 22:54:14","13/04/2021 18:54:14",48742,5,3601662,"6035cf48ab65f735a5ebb489","Chrome 89.0.4389.114","retrieval_b6",2,"SS4",5,1542.48000006191,"surgeonfish.png",1,1,0,"recon_trial","SS4",6,3,"pred","pet store.png",2,2,"surgeonfish.png",NA,NA,NA
"13/04/2021 22:54:17","13/04/2021 18:54:17",48742,5,3601662,"6035cf48ab65f735a5ebb489","Chrome 89.0.4389.114","retrieval_b6",2,"SS4",6,3161.28000000026,"giraffe.png",1,1,0,"recon_trial","SS4",6,3,"pred","pet store.png",3,4,"giraffe.png",NA,NA,NA
"13/04/2021 22:54:19","13/04/2021 18:54:19",48742,5,3601662,"6035cf48ab65f735a5ebb489","Chrome 89.0.4389.114","retrieval_b6",2,"SS4",7,1698.46999994479,"snail.png",1,1,0,"recon_trial","SS4",6,3,"pred","pet store.png",4,2,"snail.png",NA,NA,NA
"13/04/2021 22:54:20","13/04/2021 18:54:19",48742,5,3601662,"6035cf48ab65f735a5ebb489","Chrome 89.0.4389.114","retrieval_b6",2,"SS4",8,420.014999923296,"bat.png",1,1,0,"recon_trial","SS4",6,3,"pred","pet store.png",5,1,"bat.png",NA,NA,NA
"13/04/2021 22:54:20","13/04/2021 18:54:20",48742,5,3601662,"6035cf48ab65f735a5ebb489","Chrome 89.0.4389.114","retrieval_b6",2,"SS4",9,515.750000020489,"ferret.png",1,1,0,"recon_trial","SS4",6,3,"pred","pet store.png",6,4,"ferret.png",NA,NA,NA
"13/04/2021 22:54:23","13/04/2021 18:54:23",48742,5,3601662,"6035cf48ab65f735a5ebb489","Chrome 89.0.4389.114","retrieval_b6",2,"SS4",11,2346.56000009272,"broccoli.png",1,1,0,"recon_trial","SS4",6,1,"rand","grocery store.png",1,4,"broccoli.png",NA,NA,NA
"13/04/2021 22:54:25","13/04/2021 18:54:25",48742,5,3601662,"6035cf48ab65f735a5ebb489","Chrome 89.0.4389.114","retrieval_b6",2,"SS4",12,1515.68499999121,"brusselsprouts.png",1,1,0,"recon_trial","SS4",6,1,"rand","grocery store.png",2,2,"brusselsprouts.png",NA,NA,NA
"13/04/2021 22:54:27","13/04/2021 18:54:26",48742,5,3601662,"6035cf48ab65f735a5ebb489","Chrome 89.0.4389.114","retrieval_b6",2,"SS4",13,1487.06499999389,"pancakes.png",1,1,0,"recon_trial","SS4",6,1,"rand","grocery store.png",3,1,"pancakes.png",NA,NA,NA
"13/04/2021 22:54:31","13/04/2021 18:54:31",48742,5,3601662,"6035cf48ab65f735a5ebb489","Chrome 89.0.4389.114","retrieval_b6",2,"SS4",14,4746.55499996152,"bread.png",1,0,0,"recon_trial","SS4",6,1,"rand","grocery store.png",4,3,"tomato.png",NA,NA,NA
"13/04/2021 22:54:32","13/04/2021 18:54:32",48742,5,3601662,"6035cf48ab65f735a5ebb489","Chrome 89.0.4389.114","retrieval_b6",2,"SS4",15,467.605000012554,"tomato.png",1,0,0,"recon_trial","SS4",6,1,"rand","grocery store.png",5,2,"bread.png",NA,NA,NA
"13/04/2021 22:54:32","13/04/2021 18:54:32",48742,5,3601662,"6035cf48ab65f735a5ebb489","Chrome 89.0.4389.114","retrieval_b6",2,"SS4",16,591.039999970235,"honeycomb.png",1,1,0,"recon_trial","SS4",6,1,"rand","grocery store.png",6,3,"honeycomb.png",NA,NA,NA
"13/04/2021 22:58:04","13/04/2021 18:58:04",48742,5,3601662,"6035cf48ab65f735a5ebb489","Chrome 89.0.4389.114","retrieval_b7",2,"SS4",4,3597.01000002678,"chicken.png",1,1,0,"recon_trial","SS4",7,1,"pred","pet store.png",1,3,"chicken.png",NA,NA,NA
"13/04/2021 22:58:08","13/04/2021 18:58:07",48742,5,3601662,"6035cf48ab65f735a5ebb489","Chrome 89.0.4389.114","retrieval_b7",2,"SS4",5,3229.90999999456,"badger.png",1,1,0,"recon_trial","SS4",7,1,"pred","pet store.png",2,2,"badger.png",NA,NA,NA
"13/04/2021 22:58:11","13/04/2021 18:58:11",48742,5,3601662,"6035cf48ab65f735a5ebb489","Chrome 89.0.4389.114","retrieval_b7",2,"SS4",6,3173.6099999398,"toucan.png",1,0,0,"recon_trial","SS4",7,1,"pred","pet store.png",3,4,"octopus.png",NA,NA,NA
"13/04/2021 22:58:15","13/04/2021 18:58:15",48742,5,3601662,"6035cf48ab65f735a5ebb489","Chrome 89.0.4389.114","retrieval_b7",2,"SS4",7,4591.09000000171,"lion.png",1,0,0,"recon_trial","SS4",7,1,"pred","pet store.png",4,2,"toucan.png",NA,NA,NA
"13/04/2021 22:58:16","13/04/2021 18:58:16",48742,5,3601662,"6035cf48ab65f735a5ebb489","Chrome 89.0.4389.114","retrieval_b7",2,"SS4",8,509.650000021793,"grasshopper.png",1,0,0,"recon_trial","SS4",7,1,"pred","pet store.png",5,1,"lion.png",NA,NA,NA
"13/04/2021 22:58:17","13/04/2021 18:58:16",48742,5,3601662,"6035cf48ab65f735a5ebb489","Chrome 89.0.4389.114","retrieval_b7",2,"SS4",9,475.860000005923,"octopus.png",1,0,0,"recon_trial","SS4",7,1,"pred","pet store.png",6,4,"grasshopper.png",NA,NA,NA
"13/04/2021 22:58:24","13/04/2021 18:58:24",48742,5,3601662,"6035cf48ab65f735a5ebb489","Chrome 89.0.4389.114","retrieval_b7",2,"SS4",11,6878.74499999452,"asparagus.png",1,1,0,"recon_trial","SS4",7,2,"rand","grocery store.png",1,2,"asparagus.png",NA,NA,NA
"13/04/2021 22:58:25","13/04/2021 18:58:25",48742,5,3601662,"6035cf48ab65f735a5ebb489","Chrome 89.0.4389.114","retrieval_b7",2,"SS4",12,724.279999965802,"salad.png",1,1,0,"recon_trial","SS4",7,2,"rand","grocery store.png",2,1,"salad.png",NA,NA,NA
"13/04/2021 22:58:33","13/04/2021 18:58:33",48742,5,3601662,"6035cf48ab65f735a5ebb489","Chrome 89.0.4389.114","retrieval_b7",2,"SS4",13,7788.48500002641,"lemon.png",1,0,0,"recon_trial","SS4",7,2,"rand","grocery store.png",3,3,"beet.png",NA,NA,NA
"13/04/2021 22:58:37","13/04/2021 18:58:37",48742,5,3601662,"6035cf48ab65f735a5ebb489","Chrome 89.0.4389.114","retrieval_b7",2,"SS4",14,3989.41500007641,"beet.png",1,0,0,"recon_trial","SS4",7,2,"rand","grocery store.png",4,4,"lemon.png",NA,NA,NA
"13/04/2021 22:58:38","13/04/2021 18:58:38",48742,5,3601662,"6035cf48ab65f735a5ebb489","Chrome 89.0.4389.114","retrieval_b7",2,"SS4",15,1425.25999993086,"peaches.png",1,0,0,"recon_trial","SS4",7,2,"rand","grocery store.png",5,1,"seaweed.png",NA,NA,NA
"13/04/2021 22:58:39","13/04/2021 18:58:39",48742,5,3601662,"6035cf48ab65f735a5ebb489","Chrome 89.0.4389.114","retrieval_b7",2,"SS4",16,448.009999934584,"seaweed.png",1,0,0,"recon_trial","SS4",7,2,"rand","grocery store.png",6,4,"peaches.png",NA,NA,NA
"13/04/2021 23:01:52","13/04/2021 19:01:52",48742,5,3601662,"6035cf48ab65f735a5ebb489","Chrome 89.0.4389.114","retrieval_b8",2,"SS4",11,2335.21000004839,"bagel.png",1,1,0,"recon_trial","SS4",8,2,"rand","grocery store.png",1,4,"bagel.png",NA,NA,NA
"13/04/2021 23:01:53","13/04/2021 19:01:53",48742,5,3601662,"6035cf48ab65f735a5ebb489","Chrome 89.0.4389.114","retrieval_b8",2,"SS4",12,1063.88999999035,"chocolatemilk.png",1,1,0,"recon_trial","SS4",8,2,"rand","grocery store.png",2,1,"chocolatemilk.png",NA,NA,NA
"13/04/2021 23:01:58","13/04/2021 19:01:58",48742,5,3601662,"6035cf48ab65f735a5ebb489","Chrome 89.0.4389.114","retrieval_b8",2,"SS4",13,4764.40500002354,"waffle.png",1,0,0,"recon_trial","SS4",8,2,"rand","grocery store.png",3,3,"acornsquash.png",NA,NA,NA
"13/04/2021 23:02:01","13/04/2021 19:02:01",48742,5,3601662,"6035cf48ab65f735a5ebb489","Chrome 89.0.4389.114","retrieval_b8",2,"SS4",14,2974.90499995183,"pizza.png",1,0,0,"recon_trial","SS4",8,2,"rand","grocery store.png",4,2,"waffle.png",NA,NA,NA
"13/04/2021 23:02:02","13/04/2021 19:02:01",48742,5,3601662,"6035cf48ab65f735a5ebb489","Chrome 89.0.4389.114","retrieval_b8",2,"SS4",15,291.395000065677,"acornsquash.png",1,0,0,"recon_trial","SS4",8,2,"rand","grocery store.png",5,3,"pizza.png",NA,NA,NA
"13/04/2021 23:02:02","13/04/2021 19:02:02",48742,5,3601662,"6035cf48ab65f735a5ebb489","Chrome 89.0.4389.114","retrieval_b8",2,"SS4",16,614.464999991469,"taco.png",1,1,0,"recon_trial","SS4",8,2,"rand","grocery store.png",6,1,"taco.png",NA,NA,NA
"13/04/2021 23:02:07","13/04/2021 19:02:06",48742,5,3601662,"6035cf48ab65f735a5ebb489","Chrome 89.0.4389.114","retrieval_b8",2,"SS4",4,3534.86499993596,"whale.png",1,1,0,"recon_trial","SS4",8,4,"pred","pet store.png",1,3,"whale.png",NA,NA,NA
"13/04/2021 23:02:10","13/04/2021 19:02:10",48742,5,3601662,"6035cf48ab65f735a5ebb489","Chrome 89.0.4389.114","retrieval_b8",2,"SS4",5,3343.95500004757,"rabbit.png",1,1,0,"recon_trial","SS4",8,4,"pred","pet store.png",2,2,"rabbit.png",NA,NA,NA
"13/04/2021 23:02:11","13/04/2021 19:02:11",48742,5,3601662,"6035cf48ab65f735a5ebb489","Chrome 89.0.4389.114","retrieval_b8",2,"SS4",6,1412.87999995984,"cow.png",1,1,0,"recon_trial","SS4",8,4,"pred","pet store.png",3,4,"cow.png",NA,NA,NA
"13/04/2021 23:02:14","13/04/2021 19:02:14",48742,5,3601662,"6035cf48ab65f735a5ebb489","Chrome 89.0.4389.114","retrieval_b8",2,"SS4",7,2701.43500005361,"pangolin.png",1,1,0,"recon_trial","SS4",8,4,"pred","pet store.png",4,2,"pangolin.png",NA,NA,NA
"13/04/2021 23:02:15","13/04/2021 19:02:15",48742,5,3601662,"6035cf48ab65f735a5ebb489","Chrome 89.0.4389.114","retrieval_b8",2,"SS4",8,836.295000044629,"deer.png",1,1,0,"recon_trial","SS4",8,4,"pred","pet store.png",5,1,"deer.png",NA,NA,NA
"13/04/2021 23:02:16","13/04/2021 19:02:15",48742,5,3601662,"6035cf48ab65f735a5ebb489","Chrome 89.0.4389.114","retrieval_b8",2,"SS4",9,585.039999918081,"chimp.png",1,1,0,"recon_trial","SS4",8,4,"pred","pet store.png",6,4,"chimp.png",NA,NA,NA
"13/04/2021 22:22:51","13/04/2021 18:22:51",48742,5,3601604,"5eb883cc52bcce7d6fadf5a0","Chrome 89.0.4389.114","retrieval_b1",2,"SS2",11,5940.58499999851,"caramelapple.png",1,0,0,"recon_trial","SS2",1,2,"rand","grocery store.png",1,2,"waffle.png",NA,NA,NA
"13/04/2021 22:22:53","13/04/2021 18:22:53",48742,5,3601604,"5eb883cc52bcce7d6fadf5a0","Chrome 89.0.4389.114","retrieval_b1",2,"SS2",12,2286.11500000081,"waffle.png",1,0,0,"recon_trial","SS2",1,2,"rand","grocery store.png",2,3,"caramelapple.png",NA,NA,NA
"13/04/2021 22:22:55","13/04/2021 18:22:55",48742,5,3601604,"5eb883cc52bcce7d6fadf5a0","Chrome 89.0.4389.114","retrieval_b1",2,"SS2",13,2358.99500000052,"nachos.png",1,0,0,"recon_trial","SS2",1,2,"rand","grocery store.png",3,1,"hummus.png",NA,NA,NA
"13/04/2021 22:22:57","13/04/2021 18:22:57",48742,5,3601604,"5eb883cc52bcce7d6fadf5a0","Chrome 89.0.4389.114","retrieval_b1",2,"SS2",14,1171.39500000118,"sandwich.png",1,0,0,"recon_trial","SS2",1,2,"rand","grocery store.png",4,3,"nachos.png",NA,NA,NA
"13/04/2021 22:22:57","13/04/2021 18:22:57",48742,5,3601604,"5eb883cc52bcce7d6fadf5a0","Chrome 89.0.4389.114","retrieval_b1",2,"SS2",15,753.235000000161,"hummus.png",1,0,0,"recon_trial","SS2",1,2,"rand","grocery store.png",5,4,"sandwich.png",NA,NA,NA
"13/04/2021 22:22:58","13/04/2021 18:22:58",48742,5,3601604,"5eb883cc52bcce7d6fadf5a0","Chrome 89.0.4389.114","retrieval_b1",2,"SS2",16,353.390000000247,"pork.png",1,1,0,"recon_trial","SS2",1,2,"rand","grocery store.png",6,1,"pork.png",NA,NA,NA
"13/04/2021 22:23:06","13/04/2021 18:23:06",48742,5,3601604,"5eb883cc52bcce7d6fadf5a0","Chrome 89.0.4389.114","retrieval_b1",2,"SS2",4,6825.75499999989,"bear.png",1,1,0,"recon_trial","SS2",1,4,"pred","pet store.png",1,1,"bear.png",NA,NA,NA
"13/04/2021 22:23:06","13/04/2021 18:23:06",48742,5,3601604,"5eb883cc52bcce7d6fadf5a0","Chrome 89.0.4389.114","retrieval_b1",2,"SS2",5,724.689999999071,"moose.png",1,0,0,"recon_trial","SS2",1,4,"pred","pet store.png",2,4,"lion.png",NA,NA,NA
"13/04/2021 22:23:07","13/04/2021 18:23:07",48742,5,3601604,"5eb883cc52bcce7d6fadf5a0","Chrome 89.0.4389.114","retrieval_b1",2,"SS2",6,717.020000000019,"lion.png",1,0,0,"recon_trial","SS2",1,4,"pred","pet store.png",3,3,"stingray.png",NA,NA,NA
"13/04/2021 22:23:08","13/04/2021 18:23:08",48742,5,3601604,"5eb883cc52bcce7d6fadf5a0","Chrome 89.0.4389.114","retrieval_b1",2,"SS2",7,781.220000000729,"stingray.png",1,0,0,"recon_trial","SS2",1,4,"pred","pet store.png",4,4,"camel.png",NA,NA,NA
"13/04/2021 22:23:08","13/04/2021 18:23:08",48742,5,3601604,"5eb883cc52bcce7d6fadf5a0","Chrome 89.0.4389.114","retrieval_b1",2,"SS2",8,301.020000000775,"camel.png",1,0,0,"recon_trial","SS2",1,4,"pred","pet store.png",5,2,"moose.png",NA,NA,NA
"13/04/2021 22:23:09","13/04/2021 18:23:09",48742,5,3601604,"5eb883cc52bcce7d6fadf5a0","Chrome 89.0.4389.114","retrieval_b1",2,"SS2",9,278.089999999793,"panda.png",1,1,0,"recon_trial","SS2",1,4,"pred","pet store.png",6,3,"panda.png",NA,NA,NA
"13/04/2021 22:26:22","13/04/2021 18:26:22",48742,5,3601604,"5eb883cc52bcce7d6fadf5a0","Chrome 89.0.4389.114","retrieval_b2",2,"SS2",4,1942.13499999933,"grasshopper.png",1,0,0,"recon_trial","SS2",2,3,"pred","pet store.png",1,1,"toucan.png",NA,NA,NA
"13/04/2021 22:26:28","13/04/2021 18:26:23",48742,5,3601604,"5eb883cc52bcce7d6fadf5a0","Chrome 89.0.4389.114","retrieval_b2",2,"SS2",5,1756.59000000087,"llama.png",1,1,0,"recon_trial","SS2",2,3,"pred","pet store.png",2,4,"llama.png",NA,NA,NA
"13/04/2021 22:26:29","13/04/2021 18:26:24",48742,5,3601604,"5eb883cc52bcce7d6fadf5a0","Chrome 89.0.4389.114","retrieval_b2",2,"SS2",6,469.030000000203,"squirrel.png",1,0,0,"recon_trial","SS2",2,3,"pred","pet store.png",3,3,"squid.png",NA,NA,NA
"13/04/2021 22:26:29","13/04/2021 18:26:25",48742,5,3601604,"5eb883cc52bcce7d6fadf5a0","Chrome 89.0.4389.114","retrieval_b2",2,"SS2",7,1464.93999999984,"squid.png",1,0,0,"recon_trial","SS2",2,3,"pred","pet store.png",4,4,"grasshopper.png",NA,NA,NA
"13/04/2021 22:26:29","13/04/2021 18:26:26",48742,5,3601604,"5eb883cc52bcce7d6fadf5a0","Chrome 89.0.4389.114","retrieval_b2",2,"SS2",8,361.875000000509,"toucan.png",1,0,0,"recon_trial","SS2",2,3,"pred","pet store.png",5,2,"sheep.png",NA,NA,NA
"13/04/2021 22:26:29","13/04/2021 18:26:26",48742,5,3601604,"5eb883cc52bcce7d6fadf5a0","Chrome 89.0.4389.114","retrieval_b2",2,"SS2",9,670.410000000629,"sheep.png",1,0,0,"recon_trial","SS2",2,3,"pred","pet store.png",6,3,"squirrel.png",NA,NA,NA
