utc_date,local_date,exp_id,exp_ver,id,prolific_id,browser,task,task_ver,gorilla_counterbalance,trial_row,screen_name,zone_type,rt,response,attempt,accuracy,dishonest,display,counterbalance_order,condition,event_name,seq_pos,correct
13/04/2021 00:31:06,12/04/2021 19:31:06,48742,5,3590485,5d6f332829c25100188a4a27,Chrome 89.0.4389.114,reminder,5,SS4,20,Screen 1,response_keyboard,648.9400000009482,3,1,1,0,test_trial,SS4,pred,pet store.png,1,3
13/04/2021 00:31:08,12/04/2021 19:31:09,48742,5,3590485,5d6f332829c25100188a4a27,Chrome 89.0.4389.114,reminder,5,SS4,21,Screen 1,response_keyboard,1854.800000000978,2,1,1,0,test_trial,SS4,pred,pet store.png,2,2
13/04/2021 00:31:10,12/04/2021 19:31:10,48742,5,3590485,5d6f332829c25100188a4a27,Chrome 89.0.4389.114,reminder,5,SS4,22,Screen 1,response_keyboard,994.9999999989814,4,1,1,0,test_trial,SS4,pred,pet store.png,3,4
13/04/2021 00:31:11,12/04/2021 19:31:12,48742,5,3590485,5d6f332829c25100188a4a27,Chrome 89.0.4389.114,reminder,5,SS4,23,Screen 1,response_keyboard,849.1049999993265,2,1,1,0,test_trial,SS4,pred,pet store.png,4,2
13/04/2021 00:31:13,12/04/2021 19:31:14,48742,5,3590485,5d6f332829c25100188a4a27,Chrome 89.0.4389.114,reminder,5,SS4,24,Screen 1,response_keyboard,1378.7649999994755,1,1,1,0,test_trial,SS4,pred,pet store.png,5,1
13/04/2021 00:31:14,12/04/2021 19:31:15,48742,5,3590485,5d6f332829c25100188a4a27,Chrome 89.0.4389.114,reminder,5,SS4,25,Screen 1,response_keyboard,624.100000000908,4,1,1,0,test_trial,SS4,pred,pet store.png,6,4
13/04/2021 00:31:20,12/04/2021 19:31:20,48742,5,3590485,5d6f332829c25100188a4a27,Chrome 89.0.4389.114,reminder,5,SS4,28,Screen 1,response_keyboard,883.9349999998376,3,1,1,0,test_trial,SS4,pred,pet store.png,1,3
13/04/2021 00:31:21,12/04/2021 19:31:21,48742,5,3590485,5d6f332829c25100188a4a27,Chrome 89.0.4389.114,reminder,5,SS4,29,Screen 1,response_keyboard,319.9499999991531,2,1,1,0,test_trial,SS4,pred,pet store.png,2,2
13/04/2021 00:31:22,12/04/2021 19:31:22,48742,5,3590485,5d6f332829c25100188a4a27,Chrome 89.0.4389.114,reminder,5,SS4,30,Screen 1,response_keyboard,345.31000000060885,4,1,1,0,test_trial,SS4,pred,pet store.png,3,4
13/04/2021 00:31:23,12/04/2021 19:31:23,48742,5,3590485,5d6f332829c25100188a4a27,Chrome 89.0.4389.114,reminder,5,SS4,31,Screen 1,response_keyboard,344.8599999992439,2,1,1,0,test_trial,SS4,pred,pet store.png,4,2
13/04/2021 00:31:25,12/04/2021 19:31:25,48742,5,3590485,5d6f332829c25100188a4a27,Chrome 89.0.4389.114,reminder,5,SS4,32,Screen 1,response_keyboard,1350.7900000004156,4,1,0,0,test_trial,SS4,pred,pet store.png,5,1
13/04/2021 00:31:25,12/04/2021 19:31:25,48742,5,3590485,5d6f332829c25100188a4a27,Chrome 89.0.4389.114,reminder,5,SS4,33,Screen 1,response_keyboard,2.4450000000797445,4,1,1,0,test_trial,SS4,pred,pet store.png,6,4
13/04/2021 02:51:14,12/04/2021 21:51:13,48742,5,3591005,5cc65d95050b2e00154babac,Chrome 89.0.4389.114,reminder,5,SS3,20,Screen 1,response_keyboard,619.4200000027195,3,1,1,0,test_trial,SS3,pred,grocery store.png,1,3
13/04/2021 02:51:15,12/04/2021 21:51:13,48742,5,3591005,5cc65d95050b2e00154babac,Chrome 89.0.4389.114,reminder,5,SS3,21,Screen 1,response_keyboard,39.31500006001443,2,1,1,0,test_trial,SS3,pred,grocery store.png,2,2
13/04/2021 02:51:16,12/04/2021 21:51:14,48742,5,3591005,5cc65d95050b2e00154babac,Chrome 89.0.4389.114,reminder,5,SS3,22,Screen 1,response_keyboard,206.45000005606562,4,1,1,0,test_trial,SS3,pred,grocery store.png,3,4
13/04/2021 02:51:17,12/04/2021 21:51:15,48742,5,3591005,5cc65d95050b2e00154babac,Chrome 89.0.4389.114,reminder,5,SS3,23,Screen 1,response_keyboard,97.86500001791865,2,1,1,0,test_trial,SS3,pred,grocery store.png,4,2
13/04/2021 02:51:17,12/04/2021 21:51:16,48742,5,3591005,5cc65d95050b2e00154babac,Chrome 89.0.4389.114,reminder,5,SS3,24,Screen 1,response_keyboard,141.11500000581145,1,1,1,0,test_trial,SS3,pred,grocery store.png,5,1
13/04/2021 02:51:18,12/04/2021 21:51:16,48742,5,3591005,5cc65d95050b2e00154babac,Chrome 89.0.4389.114,reminder,5,SS3,25,Screen 1,response_keyboard,23.879999993368983,4,1,1,0,test_trial,SS3,pred,grocery store.png,6,4
13/04/2021 02:51:23,12/04/2021 21:51:22,48742,5,3591005,5cc65d95050b2e00154babac,Chrome 89.0.4389.114,reminder,5,SS3,28,Screen 1,response_keyboard,520.7149999914691,3,1,1,0,test_trial,SS3,pred,grocery store.png,1,3
13/04/2021 02:51:24,12/04/2021 21:51:22,48742,5,3591005,5cc65d95050b2e00154babac,Chrome 89.0.4389.114,reminder,5,SS3,29,Screen 1,response_keyboard,36.36999998707324,2,1,1,0,test_trial,SS3,pred,grocery store.png,2,2
13/04/2021 02:51:25,12/04/2021 21:51:23,48742,5,3591005,5cc65d95050b2e00154babac,Chrome 89.0.4389.114,reminder,5,SS3,30,Screen 1,response_keyboard,74.8750000493601,4,1,1,0,test_trial,SS3,pred,grocery store.png,3,4
13/04/2021 02:51:25,12/04/2021 21:51:23,48742,5,3591005,5cc65d95050b2e00154babac,Chrome 89.0.4389.114,reminder,5,SS3,31,Screen 1,response_keyboard,30.445000040344894,2,1,1,0,test_trial,SS3,pred,grocery store.png,4,2
13/04/2021 02:51:26,12/04/2021 21:51:24,48742,5,3591005,5cc65d95050b2e00154babac,Chrome 89.0.4389.114,reminder,5,SS3,32,Screen 1,response_keyboard,90.34499991685152,1,1,1,0,test_trial,SS3,pred,grocery store.png,5,1
13/04/2021 02:51:27,12/04/2021 21:51:25,48742,5,3591005,5cc65d95050b2e00154babac,Chrome 89.0.4389.114,reminder,5,SS3,33,Screen 1,response_keyboard,613.2450000150129,4,1,1,0,test_trial,SS3,pred,grocery store.png,6,4
13/04/2021 03:04:54,12/04/2021 20:04:54,48742,5,3591057,60286182887e6f1aac272ed5,Chrome 89.0.4389.114,reminder,5,SS8,20,Screen 1,response_keyboard,683.5000000428408,3,1,1,0,test_trial,SS8,pred,pet store.png,1,3
13/04/2021 03:04:55,12/04/2021 20:04:55,48742,5,3591057,60286182887e6f1aac272ed5,Chrome 89.0.4389.114,reminder,5,SS8,21,Screen 1,response_keyboard,655.4849999956787,2,1,1,0,test_trial,SS8,pred,pet store.png,2,2
13/04/2021 03:04:56,12/04/2021 20:04:56,48742,5,3591057,60286182887e6f1aac272ed5,Chrome 89.0.4389.114,reminder,5,SS8,22,Screen 1,response_keyboard,241.93000001832843,4,1,1,0,test_trial,SS8,pred,pet store.png,3,4
13/04/2021 03:04:57,12/04/2021 20:04:57,48742,5,3591057,60286182887e6f1aac272ed5,Chrome 89.0.4389.114,reminder,5,SS8,23,Screen 1,response_keyboard,181.9499998819083,2,1,1,0,test_trial,SS8,pred,pet store.png,4,2
13/04/2021 03:04:58,12/04/2021 20:04:57,48742,5,3591057,60286182887e6f1aac272ed5,Chrome 89.0.4389.114,reminder,5,SS8,24,Screen 1,response_keyboard,227.40500001236796,1,1,1,0,test_trial,SS8,pred,pet store.png,5,1
13/04/2021 03:04:58,12/04/2021 20:04:58,48742,5,3591057,60286182887e6f1aac272ed5,Chrome 89.0.4389.114,reminder,5,SS8,25,Screen 1,response_keyboard,214.54999991692603,4,1,1,0,test_trial,SS8,pred,pet store.png,6,4
13/04/2021 03:05:04,12/04/2021 20:05:04,48742,5,3591057,60286182887e6f1aac272ed5,Chrome 89.0.4389.114,reminder,5,SS8,28,Screen 1,response_keyboard,516.7900000233203,3,1,1,0,test_trial,SS8,pred,pet store.png,1,3
13/04/2021 03:05:05,12/04/2021 20:05:04,48742,5,3591057,60286182887e6f1aac272ed5,Chrome 89.0.4389.114,reminder,5,SS8,29,Screen 1,response_keyboard,36.31999995559454,2,1,1,0,test_trial,SS8,pred,pet store.png,2,2
13/04/2021 03:05:06,12/04/2021 20:05:05,48742,5,3591057,60286182887e6f1aac272ed5,Chrome 89.0.4389.114,reminder,5,SS8,30,Screen 1,response_keyboard,116.09499994665384,4,1,1,0,test_trial,SS8,pred,pet store.png,3,4
13/04/2021 03:05:07,12/04/2021 20:05:06,48742,5,3591057,60286182887e6f1aac272ed5,Chrome 89.0.4389.114,reminder,5,SS8,31,Screen 1,response_keyboard,181.91999988630414,2,1,1,0,test_trial,SS8,pred,pet store.png,4,2
13/04/2021 03:05:07,12/04/2021 20:05:06,48742,5,3591057,60286182887e6f1aac272ed5,Chrome 89.0.4389.114,reminder,5,SS8,32,Screen 1,response_keyboard,146.69999992474914,1,1,1,0,test_trial,SS8,pred,pet store.png,5,1
13/04/2021 03:05:07,12/04/2021 20:05:07,48742,5,3591057,60286182887e6f1aac272ed5,Chrome 89.0.4389.114,reminder,5,SS8,33,Screen 1,response_keyboard,144.14999983273447,4,1,1,0,test_trial,SS8,pred,pet store.png,6,4
13/04/2021 03:15:30,12/04/2021 22:15:30,48742,5,3591028,5fe218efbf7c82d3e44ada5d,Chrome 89.0.4389.114,reminder,5,SS3,20,Screen 1,response_keyboard,522.2450000001118,3,1,1,0,test_trial,SS3,pred,grocery store.png,1,3
13/04/2021 03:15:31,12/04/2021 22:15:31,48742,5,3591028,5fe218efbf7c82d3e44ada5d,Chrome 89.0.4389.114,reminder,5,SS3,21,Screen 1,response_keyboard,503.3699999912642,2,1,1,0,test_trial,SS3,pred,grocery store.png,2,2
13/04/2021 03:15:34,12/04/2021 22:15:33,48742,5,3591028,5fe218efbf7c82d3e44ada5d,Chrome 89.0.4389.114,reminder,5,SS3,22,Screen 1,response_keyboard,1545.8750000107102,4,1,1,0,test_trial,SS3,pred,grocery store.png,3,4
13/04/2021 03:15:35,12/04/2021 22:15:34,48742,5,3591028,5fe218efbf7c82d3e44ada5d,Chrome 89.0.4389.114,reminder,5,SS3,23,Screen 1,response_keyboard,505.0349999801256,2,1,1,0,test_trial,SS3,pred,grocery store.png,4,2
13/04/2021 03:15:35,12/04/2021 22:15:35,48742,5,3591028,5fe218efbf7c82d3e44ada5d,Chrome 89.0.4389.114,reminder,5,SS3,24,Screen 1,response_keyboard,288.18000003229827,1,1,1,0,test_trial,SS3,pred,grocery store.png,5,1
13/04/2021 03:15:36,12/04/2021 22:15:36,48742,5,3591028,5fe218efbf7c82d3e44ada5d,Chrome 89.0.4389.114,reminder,5,SS3,25,Screen 1,response_keyboard,178.01500001223758,4,1,1,0,test_trial,SS3,pred,grocery store.png,6,4
13/04/2021 03:15:41,12/04/2021 22:15:41,48742,5,3591028,5fe218efbf7c82d3e44ada5d,Chrome 89.0.4389.114,reminder,5,SS3,28,Screen 1,response_keyboard,728.1749999965541,2,1,0,0,test_trial,SS3,pred,grocery store.png,1,3
13/04/2021 03:15:44,12/04/2021 22:15:43,48742,5,3591028,5fe218efbf7c82d3e44ada5d,Chrome 89.0.4389.114,reminder,5,SS3,29,Screen 1,response_keyboard,1505.0499999779277,2,1,1,0,test_trial,SS3,pred,grocery store.png,2,2
13/04/2021 03:15:45,12/04/2021 22:15:45,48742,5,3591028,5fe218efbf7c82d3e44ada5d,Chrome 89.0.4389.114,reminder,5,SS3,30,Screen 1,response_keyboard,956.3099999795668,4,1,1,0,test_trial,SS3,pred,grocery store.png,3,4
13/04/2021 03:15:46,12/04/2021 22:15:45,48742,5,3591028,5fe218efbf7c82d3e44ada5d,Chrome 89.0.4389.114,reminder,5,SS3,31,Screen 1,response_keyboard,255.5449999636039,2,1,1,0,test_trial,SS3,pred,grocery store.png,4,2
13/04/2021 03:15:47,12/04/2021 22:15:46,48742,5,3591028,5fe218efbf7c82d3e44ada5d,Chrome 89.0.4389.114,reminder,5,SS3,32,Screen 1,response_keyboard,121.93999998271465,1,1,1,0,test_trial,SS3,pred,grocery store.png,5,1
13/04/2021 03:15:47,12/04/2021 22:15:47,48742,5,3591028,5fe218efbf7c82d3e44ada5d,Chrome 89.0.4389.114,reminder,5,SS3,33,Screen 1,response_keyboard,225.2199999638833,4,1,1,0,test_trial,SS3,pred,grocery store.png,6,4
13/04/2021 03:18:43,12/04/2021 23:18:41,48742,5,3591012,5e2bf2153a9311222d4892c6,Chrome 89.0.4389.114,reminder,5,SS5,20,Screen 1,response_keyboard,871.1800000019139,1,1,1,0,test_trial,SS5,pred,grocery store.png,1,1
13/04/2021 03:18:44,12/04/2021 23:18:42,48742,5,3591012,5e2bf2153a9311222d4892c6,Chrome 89.0.4389.114,reminder,5,SS5,21,Screen 1,response_keyboard,343.525000003865,4,1,1,0,test_trial,SS5,pred,grocery store.png,2,4
13/04/2021 03:18:45,12/04/2021 23:18:42,48742,5,3591012,5e2bf2153a9311222d4892c6,Chrome 89.0.4389.114,reminder,5,SS5,22,Screen 1,response_keyboard,316.1699999982375,3,1,1,0,test_trial,SS5,pred,grocery store.png,3,3
13/04/2021 03:18:45,12/04/2021 23:18:43,48742,5,3591012,5e2bf2153a9311222d4892c6,Chrome 89.0.4389.114,reminder,5,SS5,23,Screen 1,response_keyboard,160.6649999957881,4,1,1,0,test_trial,SS5,pred,grocery store.png,4,4
13/04/2021 03:18:46,12/04/2021 23:18:44,48742,5,3591012,5e2bf2153a9311222d4892c6,Chrome 89.0.4389.114,reminder,5,SS5,24,Screen 1,response_keyboard,322.889999995823,2,1,1,0,test_trial,SS5,pred,grocery store.png,5,2
13/04/2021 03:18:47,12/04/2021 23:18:45,48742,5,3591012,5e2bf2153a9311222d4892c6,Chrome 89.0.4389.114,reminder,5,SS5,25,Screen 1,response_keyboard,247.11000000388594,3,1,1,0,test_trial,SS5,pred,grocery store.png,6,3
13/04/2021 03:18:52,12/04/2021 23:18:50,48742,5,3591012,5e2bf2153a9311222d4892c6,Chrome 89.0.4389.114,reminder,5,SS5,28,Screen 1,response_keyboard,502.3750000036671,1,1,1,0,test_trial,SS5,pred,grocery store.png,1,1
13/04/2021 03:18:53,12/04/2021 23:18:51,48742,5,3591012,5e2bf2153a9311222d4892c6,Chrome 89.0.4389.114,reminder,5,SS5,29,Screen 1,response_keyboard,125.11499999527587,4,1,1,0,test_trial,SS5,pred,grocery store.png,2,4
13/04/2021 03:18:54,12/04/2021 23:18:52,48742,5,3591012,5e2bf2153a9311222d4892c6,Chrome 89.0.4389.114,reminder,5,SS5,30,Screen 1,response_keyboard,471.4400000011665,3,1,1,0,test_trial,SS5,pred,grocery store.png,3,3
13/04/2021 03:18:55,12/04/2021 23:18:53,48742,5,3591012,5e2bf2153a9311222d4892c6,Chrome 89.0.4389.114,reminder,5,SS5,31,Screen 1,response_keyboard,199.110000001383,4,1,1,0,test_trial,SS5,pred,grocery store.png,4,4
13/04/2021 03:18:56,12/04/2021 23:18:54,48742,5,3591012,5e2bf2153a9311222d4892c6,Chrome 89.0.4389.114,reminder,5,SS5,32,Screen 1,response_keyboard,636.5099999966333,2,1,1,0,test_trial,SS5,pred,grocery store.png,5,2
13/04/2021 03:18:57,12/04/2021 23:18:54,48742,5,3591012,5e2bf2153a9311222d4892c6,Chrome 89.0.4389.114,reminder,5,SS5,33,Screen 1,response_keyboard,125.29000000358792,3,1,1,0,test_trial,SS5,pred,grocery store.png,6,3
13/04/2021 15:15:43,13/04/2021 11:15:46,48742,5,3598281,5e3adfc595ff562fbdd130fa,Edge 89.0.774.75,reminder,5,SS5,20,Screen 1,response_keyboard,499.6099999989383,1,1,1,0,test_trial,SS5,pred,grocery store.png,1,1
13/04/2021 15:15:44,13/04/2021 11:15:47,48742,5,3598281,5e3adfc595ff562fbdd130fa,Edge 89.0.774.75,reminder,5,SS5,21,Screen 1,response_keyboard,476.0949999981676,4,1,1,0,test_trial,SS5,pred,grocery store.png,2,4
13/04/2021 15:15:45,13/04/2021 11:15:48,48742,5,3598281,5e3adfc595ff562fbdd130fa,Edge 89.0.774.75,reminder,5,SS5,22,Screen 1,response_keyboard,312.2399999992922,3,1,1,0,test_trial,SS5,pred,grocery store.png,3,3
13/04/2021 15:15:46,13/04/2021 11:15:49,48742,5,3598281,5e3adfc595ff562fbdd130fa,Edge 89.0.774.75,reminder,5,SS5,23,Screen 1,response_keyboard,291.74500000226544,4,1,1,0,test_trial,SS5,pred,grocery store.png,4,4
13/04/2021 15:15:47,13/04/2021 11:15:50,48742,5,3598281,5e3adfc595ff562fbdd130fa,Edge 89.0.774.75,reminder,5,SS5,24,Screen 1,response_keyboard,324.5699999970384,2,1,1,0,test_trial,SS5,pred,grocery store.png,5,2
13/04/2021 15:15:48,13/04/2021 11:15:50,48742,5,3598281,5e3adfc595ff562fbdd130fa,Edge 89.0.774.75,reminder,5,SS5,25,Screen 1,response_keyboard,295.8600000056322,3,1,1,0,test_trial,SS5,pred,grocery store.png,6,3
13/04/2021 15:15:53,13/04/2021 11:15:56,48742,5,3598281,5e3adfc595ff562fbdd130fa,Edge 89.0.774.75,reminder,5,SS5,28,Screen 1,response_keyboard,509.16500000312226,1,1,1,0,test_trial,SS5,pred,grocery store.png,1,1
13/04/2021 15:15:54,13/04/2021 11:15:56,48742,5,3598281,5e3adfc595ff562fbdd130fa,Edge 89.0.774.75,reminder,5,SS5,29,Screen 1,response_keyboard,199.67000000178814,4,1,1,0,test_trial,SS5,pred,grocery store.png,2,4
13/04/2021 15:15:54,13/04/2021 11:15:57,48742,5,3598281,5e3adfc595ff562fbdd130fa,Edge 89.0.774.75,reminder,5,SS5,30,Screen 1,response_keyboard,174.52500000217697,3,1,1,0,test_trial,SS5,pred,grocery store.png,3,3
13/04/2021 15:15:55,13/04/2021 11:15:58,48742,5,3598281,5e3adfc595ff562fbdd130fa,Edge 89.0.774.75,reminder,5,SS5,31,Screen 1,response_keyboard,204.47000000422122,4,1,1,0,test_trial,SS5,pred,grocery store.png,4,4
13/04/2021 15:15:56,13/04/2021 11:15:59,48742,5,3598281,5e3adfc595ff562fbdd130fa,Edge 89.0.774.75,reminder,5,SS5,32,Screen 1,response_keyboard,257.23999999900116,2,1,1,0,test_trial,SS5,pred,grocery store.png,5,2
13/04/2021 15:15:57,13/04/2021 11:15:59,48742,5,3598281,5e3adfc595ff562fbdd130fa,Edge 89.0.774.75,reminder,5,SS5,33,Screen 1,response_keyboard,265.1400000031572,3,1,1,0,test_trial,SS5,pred,grocery store.png,6,3
13/04/2021 15:17:14,13/04/2021 11:17:14,48742,5,3598258,5e8bd7044f71ac0c45cb3b52,Chrome 88.0.4324.192,reminder,5,SS1,20,Screen 1,response_keyboard,2056.1899999156594,1,1,1,0,test_trial,SS1,pred,grocery store.png,1,1
13/04/2021 15:17:15,13/04/2021 11:17:15,48742,5,3598258,5e8bd7044f71ac0c45cb3b52,Chrome 88.0.4324.192,reminder,5,SS1,21,Screen 1,response_keyboard,397.48999988660216,4,1,1,0,test_trial,SS1,pred,grocery store.png,2,4
13/04/2021 15:17:16,13/04/2021 11:17:15,48742,5,3598258,5e8bd7044f71ac0c45cb3b52,Chrome 88.0.4324.192,reminder,5,SS1,22,Screen 1,response_keyboard,284.66000012122095,3,1,1,0,test_trial,SS1,pred,grocery store.png,3,3
13/04/2021 15:17:16,13/04/2021 11:17:16,48742,5,3598258,5e8bd7044f71ac0c45cb3b52,Chrome 88.0.4324.192,reminder,5,SS1,23,Screen 1,response_keyboard,187.28499999269843,4,1,1,0,test_trial,SS1,pred,grocery store.png,4,4
13/04/2021 15:17:17,13/04/2021 11:17:17,48742,5,3598258,5e8bd7044f71ac0c45cb3b52,Chrome 88.0.4324.192,reminder,5,SS1,24,Screen 1,response_keyboard,70.66500000655651,2,1,1,0,test_trial,SS1,pred,grocery store.png,5,2
13/04/2021 15:17:18,13/04/2021 11:17:18,48742,5,3598258,5e8bd7044f71ac0c45cb3b52,Chrome 88.0.4324.192,reminder,5,SS1,25,Screen 1,response_keyboard,784.6699999645352,3,1,1,0,test_trial,SS1,pred,grocery store.png,6,3
13/04/2021 15:17:24,13/04/2021 11:17:24,48742,5,3598258,5e8bd7044f71ac0c45cb3b52,Chrome 88.0.4324.192,reminder,5,SS1,28,Screen 1,response_keyboard,788.2850000169128,1,1,1,0,test_trial,SS1,pred,grocery store.png,1,1
13/04/2021 15:17:25,13/04/2021 11:17:25,48742,5,3598258,5e8bd7044f71ac0c45cb3b52,Chrome 88.0.4324.192,reminder,5,SS1,29,Screen 1,response_keyboard,752.2350000217557,4,1,1,0,test_trial,SS1,pred,grocery store.png,2,4
13/04/2021 15:17:26,13/04/2021 11:17:26,48742,5,3598258,5e8bd7044f71ac0c45cb3b52,Chrome 88.0.4324.192,reminder,5,SS1,30,Screen 1,response_keyboard,163.83000020869076,3,1,1,0,test_trial,SS1,pred,grocery store.png,3,3
13/04/2021 15:17:27,13/04/2021 11:17:27,48742,5,3598258,5e8bd7044f71ac0c45cb3b52,Chrome 88.0.4324.192,reminder,5,SS1,31,Screen 1,response_keyboard,465.98499990068376,4,1,1,0,test_trial,SS1,pred,grocery store.png,4,4
13/04/2021 15:17:28,13/04/2021 11:17:28,48742,5,3598258,5e8bd7044f71ac0c45cb3b52,Chrome 88.0.4324.192,reminder,5,SS1,32,Screen 1,response_keyboard,509.4899998512119,2,1,1,0,test_trial,SS1,pred,grocery store.png,5,2
13/04/2021 15:17:29,13/04/2021 11:17:28,48742,5,3598258,5e8bd7044f71ac0c45cb3b52,Chrome 88.0.4324.192,reminder,5,SS1,33,Screen 1,response_keyboard,135.3400000371039,3,1,1,0,test_trial,SS1,pred,grocery store.png,6,3
13/04/2021 15:20:53,13/04/2021 08:20:51,48742,5,3598332,5f4d1708e4aa390b8063c42d,Chrome 89.0.4389.114,reminder,5,SS2,20,Screen 1,response_keyboard,575.9700000053272,1,1,1,0,test_trial,SS2,pred,pet store.png,1,1
13/04/2021 15:20:54,13/04/2021 08:20:52,48742,5,3598332,5f4d1708e4aa390b8063c42d,Chrome 89.0.4389.114,reminder,5,SS2,21,Screen 1,response_keyboard,441.2599999923259,4,1,1,0,test_trial,SS2,pred,pet store.png,2,4
13/04/2021 15:20:55,13/04/2021 08:20:53,48742,5,3598332,5f4d1708e4aa390b8063c42d,Chrome 89.0.4389.114,reminder,5,SS2,22,Screen 1,response_keyboard,280.3049999929499,3,1,1,0,test_trial,SS2,pred,pet store.png,3,3
13/04/2021 15:20:56,13/04/2021 08:20:54,48742,5,3598332,5f4d1708e4aa390b8063c42d,Chrome 89.0.4389.114,reminder,5,SS2,23,Screen 1,response_keyboard,266.364999988582,4,1,1,0,test_trial,SS2,pred,pet store.png,4,4
13/04/2021 15:20:56,13/04/2021 08:20:54,48742,5,3598332,5f4d1708e4aa390b8063c42d,Chrome 89.0.4389.114,reminder,5,SS2,24,Screen 1,response_keyboard,230.99999999976717,2,1,1,0,test_trial,SS2,pred,pet store.png,5,2
13/04/2021 15:20:57,13/04/2021 08:20:55,48742,5,3598332,5f4d1708e4aa390b8063c42d,Chrome 89.0.4389.114,reminder,5,SS2,25,Screen 1,response_keyboard,274.72999999008607,3,1,1,0,test_trial,SS2,pred,pet store.png,6,3
13/04/2021 15:21:02,13/04/2021 08:21:00,48742,5,3598332,5f4d1708e4aa390b8063c42d,Chrome 89.0.4389.114,reminder,5,SS2,28,Screen 1,response_keyboard,505.0699999992503,1,1,1,0,test_trial,SS2,pred,pet store.png,1,1
13/04/2021 15:21:03,13/04/2021 08:21:01,48742,5,3598332,5f4d1708e4aa390b8063c42d,Chrome 89.0.4389.114,reminder,5,SS2,29,Screen 1,response_keyboard,309.04500000178814,4,1,1,0,test_trial,SS2,pred,pet store.png,2,4
13/04/2021 15:21:04,13/04/2021 08:21:02,48742,5,3598332,5f4d1708e4aa390b8063c42d,Chrome 89.0.4389.114,reminder,5,SS2,30,Screen 1,response_keyboard,266.3600000087172,3,1,1,0,test_trial,SS2,pred,pet store.png,3,3
13/04/2021 15:21:05,13/04/2021 08:21:03,48742,5,3598332,5f4d1708e4aa390b8063c42d,Chrome 89.0.4389.114,reminder,5,SS2,31,Screen 1,response_keyboard,257.67500000074506,4,1,1,0,test_trial,SS2,pred,pet store.png,4,4
13/04/2021 15:21:06,13/04/2021 08:21:04,48742,5,3598332,5f4d1708e4aa390b8063c42d,Chrome 89.0.4389.114,reminder,5,SS2,32,Screen 1,response_keyboard,252.0000000076834,2,1,1,0,test_trial,SS2,pred,pet store.png,5,2
13/04/2021 15:21:06,13/04/2021 08:21:04,48742,5,3598332,5f4d1708e4aa390b8063c42d,Chrome 89.0.4389.114,reminder,5,SS2,33,Screen 1,response_keyboard,233.35000000952277,3,1,1,0,test_trial,SS2,pred,pet store.png,6,3
13/04/2021 15:25:05,13/04/2021 10:25:04,48742,5,3598428,60660870280f2b522cc3214b,Chrome 89.0.4389.114,reminder,5,SS6,20,Screen 1,response_keyboard,642.61500001885,1,1,1,0,test_trial,SS6,pred,pet store.png,1,1
13/04/2021 15:25:06,13/04/2021 10:25:05,48742,5,3598428,60660870280f2b522cc3214b,Chrome 89.0.4389.114,reminder,5,SS6,21,Screen 1,response_keyboard,396.2700000265613,4,1,1,0,test_trial,SS6,pred,pet store.png,2,4
13/04/2021 15:25:07,13/04/2021 10:25:06,48742,5,3598428,60660870280f2b522cc3214b,Chrome 89.0.4389.114,reminder,5,SS6,22,Screen 1,response_keyboard,196.20499992743134,3,1,1,0,test_trial,SS6,pred,pet store.png,3,3
13/04/2021 15:25:07,13/04/2021 10:25:07,48742,5,3598428,60660870280f2b522cc3214b,Chrome 89.0.4389.114,reminder,5,SS6,23,Screen 1,response_keyboard,242.57999996189028,4,1,1,0,test_trial,SS6,pred,pet store.png,4,4
13/04/2021 15:25:08,13/04/2021 10:25:07,48742,5,3598428,60660870280f2b522cc3214b,Chrome 89.0.4389.114,reminder,5,SS6,24,Screen 1,response_keyboard,229.11499999463558,2,1,1,0,test_trial,SS6,pred,pet store.png,5,2
13/04/2021 15:25:09,13/04/2021 10:25:08,48742,5,3598428,60660870280f2b522cc3214b,Chrome 89.0.4389.114,reminder,5,SS6,25,Screen 1,response_keyboard,199.09999996889383,3,1,1,0,test_trial,SS6,pred,pet store.png,6,3
13/04/2021 15:25:14,13/04/2021 10:25:13,48742,5,3598428,60660870280f2b522cc3214b,Chrome 89.0.4389.114,reminder,5,SS6,28,Screen 1,response_keyboard,624.199999962002,1,1,1,0,test_trial,SS6,pred,pet store.png,1,1
13/04/2021 15:25:15,13/04/2021 10:25:14,48742,5,3598428,60660870280f2b522cc3214b,Chrome 89.0.4389.114,reminder,5,SS6,29,Screen 1,response_keyboard,378.0049999477342,4,1,1,0,test_trial,SS6,pred,pet store.png,2,4
13/04/2021 15:25:16,13/04/2021 10:25:15,48742,5,3598428,60660870280f2b522cc3214b,Chrome 89.0.4389.114,reminder,5,SS6,30,Screen 1,response_keyboard,155.23499995470047,3,1,1,0,test_trial,SS6,pred,pet store.png,3,3
13/04/2021 15:25:17,13/04/2021 10:25:16,48742,5,3598428,60660870280f2b522cc3214b,Chrome 89.0.4389.114,reminder,5,SS6,31,Screen 1,response_keyboard,190.9999999916181,4,1,1,0,test_trial,SS6,pred,pet store.png,4,4
13/04/2021 15:25:17,13/04/2021 10:25:16,48742,5,3598428,60660870280f2b522cc3214b,Chrome 89.0.4389.114,reminder,5,SS6,32,Screen 1,response_keyboard,225.89500003959984,2,1,1,0,test_trial,SS6,pred,pet store.png,5,2
13/04/2021 15:25:18,13/04/2021 10:25:17,48742,5,3598428,60660870280f2b522cc3214b,Chrome 89.0.4389.114,reminder,5,SS6,33,Screen 1,response_keyboard,195.56999998167157,3,1,1,0,test_trial,SS6,pred,pet store.png,6,3
13/04/2021 15:26:03,13/04/2021 11:26:04,48742,5,3598437,5d9c67b131544d00101daef1,Firefox 87.0,reminder,5,SS4,20,Screen 1,response_keyboard,695,3,1,1,0,test_trial,SS4,pred,pet store.png,1,3
13/04/2021 15:26:04,13/04/2021 11:26:05,48742,5,3598437,5d9c67b131544d00101daef1,Firefox 87.0,reminder,5,SS4,21,Screen 1,response_keyboard,516,2,1,1,0,test_trial,SS4,pred,pet store.png,2,2
13/04/2021 15:26:05,13/04/2021 11:26:06,48742,5,3598437,5d9c67b131544d00101daef1,Firefox 87.0,reminder,5,SS4,22,Screen 1,response_keyboard,150,4,1,1,0,test_trial,SS4,pred,pet store.png,3,4
13/04/2021 15:26:06,13/04/2021 11:26:07,48742,5,3598437,5d9c67b131544d00101daef1,Firefox 87.0,reminder,5,SS4,23,Screen 1,response_keyboard,176,2,1,1,0,test_trial,SS4,pred,pet store.png,4,2
13/04/2021 15:26:07,13/04/2021 11:26:08,48742,5,3598437,5d9c67b131544d00101daef1,Firefox 87.0,reminder,5,SS4,24,Screen 1,response_keyboard,307,1,1,1,0,test_trial,SS4,pred,pet store.png,5,1
13/04/2021 15:26:07,13/04/2021 11:26:08,48742,5,3598437,5d9c67b131544d00101daef1,Firefox 87.0,reminder,5,SS4,25,Screen 1,response_keyboard,53,4,1,1,0,test_trial,SS4,pred,pet store.png,6,4
13/04/2021 15:26:13,13/04/2021 11:26:14,48742,5,3598437,5d9c67b131544d00101daef1,Firefox 87.0,reminder,5,SS4,28,Screen 1,response_keyboard,724,3,1,1,0,test_trial,SS4,pred,pet store.png,1,3
13/04/2021 15:26:14,13/04/2021 11:26:15,48742,5,3598437,5d9c67b131544d00101daef1,Firefox 87.0,reminder,5,SS4,29,Screen 1,response_keyboard,577,4,1,0,0,test_trial,SS4,pred,pet store.png,2,2
13/04/2021 15:26:14,13/04/2021 11:26:16,48742,5,3598437,5d9c67b131544d00101daef1,Firefox 87.0,reminder,5,SS4,30,Screen 1,response_keyboard,37,2,1,0,0,test_trial,SS4,pred,pet store.png,3,4
13/04/2021 15:26:17,13/04/2021 11:26:18,48742,5,3598437,5d9c67b131544d00101daef1,Firefox 87.0,reminder,5,SS4,31,Screen 1,response_keyboard,1778,4,1,0,0,test_trial,SS4,pred,pet store.png,4,2
13/04/2021 15:26:17,13/04/2021 11:26:18,48742,5,3598437,5d9c67b131544d00101daef1,Firefox 87.0,reminder,5,SS4,32,Screen 1,response_keyboard,42,2,1,0,0,test_trial,SS4,pred,pet store.png,5,1
13/04/2021 15:26:19,13/04/2021 11:26:20,48742,5,3598437,5d9c67b131544d00101daef1,Firefox 87.0,reminder,5,SS4,33,Screen 1,response_keyboard,661,4,1,1,0,test_trial,SS4,pred,pet store.png,6,4
13/04/2021 15:49:46,13/04/2021 18:49:54,48742,5,3598336,5ac8f79068b65b00018d7ef9,Chrome 89.0.4389.114,reminder,5,SS1,20,Screen 1,response_keyboard,2998.3050000155345,1,1,1,0,test_trial,SS1,pred,grocery store.png,1,1
13/04/2021 15:49:47,13/04/2021 18:49:55,48742,5,3598336,5ac8f79068b65b00018d7ef9,Chrome 89.0.4389.114,reminder,5,SS1,21,Screen 1,response_keyboard,879.3400000140537,4,1,1,0,test_trial,SS1,pred,grocery store.png,2,4
13/04/2021 15:49:48,13/04/2021 18:49:57,48742,5,3598336,5ac8f79068b65b00018d7ef9,Chrome 89.0.4389.114,reminder,5,SS1,22,Screen 1,response_keyboard,759.2149999982212,3,1,1,0,test_trial,SS1,pred,grocery store.png,3,3
13/04/2021 15:49:50,13/04/2021 18:49:58,48742,5,3598336,5ac8f79068b65b00018d7ef9,Chrome 89.0.4389.114,reminder,5,SS1,23,Screen 1,response_keyboard,769.8200000158977,4,1,1,0,test_trial,SS1,pred,grocery store.png,4,4
13/04/2021 15:49:51,13/04/2021 18:49:59,48742,5,3598336,5ac8f79068b65b00018d7ef9,Chrome 89.0.4389.114,reminder,5,SS1,24,Screen 1,response_keyboard,414.4300000043586,2,1,1,0,test_trial,SS1,pred,grocery store.png,5,2
13/04/2021 15:49:52,13/04/2021 18:50:00,48742,5,3598336,5ac8f79068b65b00018d7ef9,Chrome 89.0.4389.114,reminder,5,SS1,25,Screen 1,response_keyboard,519.8300000047311,3,1,1,0,test_trial,SS1,pred,grocery store.png,6,3
13/04/2021 15:49:57,13/04/2021 18:50:06,48742,5,3598336,5ac8f79068b65b00018d7ef9,Chrome 89.0.4389.114,reminder,5,SS1,28,Screen 1,response_keyboard,1131.3249999948312,1,1,1,0,test_trial,SS1,pred,grocery store.png,1,1
13/04/2021 15:49:58,13/04/2021 18:50:07,48742,5,3598336,5ac8f79068b65b00018d7ef9,Chrome 89.0.4389.114,reminder,5,SS1,29,Screen 1,response_keyboard,402.4349999963306,4,1,1,0,test_trial,SS1,pred,grocery store.png,2,4
13/04/2021 15:50:00,13/04/2021 18:50:08,48742,5,3598336,5ac8f79068b65b00018d7ef9,Chrome 89.0.4389.114,reminder,5,SS1,30,Screen 1,response_keyboard,782.1100000001024,3,1,1,0,test_trial,SS1,pred,grocery store.png,3,3
13/04/2021 15:50:01,13/04/2021 18:50:09,48742,5,3598336,5ac8f79068b65b00018d7ef9,Chrome 89.0.4389.114,reminder,5,SS1,31,Screen 1,response_keyboard,428.5249999957159,4,1,1,0,test_trial,SS1,pred,grocery store.png,4,4
13/04/2021 15:50:02,13/04/2021 18:50:10,48742,5,3598336,5ac8f79068b65b00018d7ef9,Chrome 89.0.4389.114,reminder,5,SS1,32,Screen 1,response_keyboard,444.30000000284053,2,1,1,0,test_trial,SS1,pred,grocery store.png,5,2
13/04/2021 15:50:03,13/04/2021 18:50:11,48742,5,3598336,5ac8f79068b65b00018d7ef9,Chrome 89.0.4389.114,reminder,5,SS1,33,Screen 1,response_keyboard,529.9799999920651,3,1,1,0,test_trial,SS1,pred,grocery store.png,6,3
13/04/2021 16:04:33,13/04/2021 12:04:34,48742,5,3598255,5f500418133110165a1539a9,Chrome 89.0.4389.114,reminder,5,SS3,20,Screen 1,response_keyboard,1507.9200000000128,3,1,1,0,test_trial,SS3,pred,grocery store.png,1,3
13/04/2021 16:04:34,13/04/2021 12:04:35,48742,5,3598255,5f500418133110165a1539a9,Chrome 89.0.4389.114,reminder,5,SS3,21,Screen 1,response_keyboard,786.7249999999185,2,1,1,0,test_trial,SS3,pred,grocery store.png,2,2
13/04/2021 16:04:36,13/04/2021 12:04:36,48742,5,3598255,5f500418133110165a1539a9,Chrome 89.0.4389.114,reminder,5,SS3,22,Screen 1,response_keyboard,676.0149999999994,4,1,1,0,test_trial,SS3,pred,grocery store.png,3,4
13/04/2021 16:04:36,13/04/2021 12:04:37,48742,5,3598255,5f500418133110165a1539a9,Chrome 89.0.4389.114,reminder,5,SS3,23,Screen 1,response_keyboard,195.32499999967695,2,1,1,0,test_trial,SS3,pred,grocery store.png,4,2
13/04/2021 16:04:37,13/04/2021 12:04:38,48742,5,3598255,5f500418133110165a1539a9,Chrome 89.0.4389.114,reminder,5,SS3,24,Screen 1,response_keyboard,338.08000000045286,1,1,1,0,test_trial,SS3,pred,grocery store.png,5,1
13/04/2021 16:04:38,13/04/2021 12:04:38,48742,5,3598255,5f500418133110165a1539a9,Chrome 89.0.4389.114,reminder,5,SS3,25,Screen 1,response_keyboard,69.3550000005489,3,1,0,0,test_trial,SS3,pred,grocery store.png,6,4
13/04/2021 16:04:43,13/04/2021 12:04:44,48742,5,3598255,5f500418133110165a1539a9,Chrome 89.0.4389.114,reminder,5,SS3,28,Screen 1,response_keyboard,896.8049999994109,3,1,1,0,test_trial,SS3,pred,grocery store.png,1,3
13/04/2021 16:04:44,13/04/2021 12:04:45,48742,5,3598255,5f500418133110165a1539a9,Chrome 89.0.4389.114,reminder,5,SS3,29,Screen 1,response_keyboard,315.0850000001956,2,1,1,0,test_trial,SS3,pred,grocery store.png,2,2
13/04/2021 16:04:45,13/04/2021 12:04:46,48742,5,3598255,5f500418133110165a1539a9,Chrome 89.0.4389.114,reminder,5,SS3,30,Screen 1,response_keyboard,449.1600000001199,4,1,1,0,test_trial,SS3,pred,grocery store.png,3,4
13/04/2021 16:04:46,13/04/2021 12:04:47,48742,5,3598255,5f500418133110165a1539a9,Chrome 89.0.4389.114,reminder,5,SS3,31,Screen 1,response_keyboard,208.6349999999511,2,1,1,0,test_trial,SS3,pred,grocery store.png,4,2
13/04/2021 16:04:47,13/04/2021 12:04:47,48742,5,3598255,5f500418133110165a1539a9,Chrome 89.0.4389.114,reminder,5,SS3,32,Screen 1,response_keyboard,160.01500000037777,1,1,1,0,test_trial,SS3,pred,grocery store.png,5,1
13/04/2021 16:04:47,13/04/2021 12:04:48,48742,5,3598255,5f500418133110165a1539a9,Chrome 89.0.4389.114,reminder,5,SS3,33,Screen 1,response_keyboard,31.595000000379514,4,1,1,0,test_trial,SS3,pred,grocery store.png,6,4
13/04/2021 16:05:25,13/04/2021 11:05:21,48742,5,3598257,6065dd3e62bd91a2b471a822,Chrome 89.0.4389.114,reminder,5,SS7,20,Screen 1,response_keyboard,1042.6799999549985,3,1,1,0,test_trial,SS7,pred,grocery store.png,1,3
13/04/2021 16:05:25,13/04/2021 11:05:22,48742,5,3598257,6065dd3e62bd91a2b471a822,Chrome 89.0.4389.114,reminder,5,SS7,21,Screen 1,response_keyboard,76.61000010557473,2,1,1,0,test_trial,SS7,pred,grocery store.png,2,2
13/04/2021 16:05:26,13/04/2021 11:05:22,48742,5,3598257,6065dd3e62bd91a2b471a822,Chrome 89.0.4389.114,reminder,5,SS7,22,Screen 1,response_keyboard,171.06000008061528,4,1,1,0,test_trial,SS7,pred,grocery store.png,3,4
13/04/2021 16:05:27,13/04/2021 11:05:23,48742,5,3598257,6065dd3e62bd91a2b471a822,Chrome 89.0.4389.114,reminder,5,SS7,23,Screen 1,response_keyboard,590.0549998041242,1,1,0,0,test_trial,SS7,pred,grocery store.png,4,2
13/04/2021 16:05:30,13/04/2021 11:05:26,48742,5,3598257,6065dd3e62bd91a2b471a822,Chrome 89.0.4389.114,reminder,5,SS7,24,Screen 1,response_keyboard,2208.9749998413026,1,1,1,0,test_trial,SS7,pred,grocery store.png,5,1
13/04/2021 16:05:31,13/04/2021 11:05:28,48742,5,3598257,6065dd3e62bd91a2b471a822,Chrome 89.0.4389.114,reminder,5,SS7,25,Screen 1,response_keyboard,879.444999853149,4,1,1,0,test_trial,SS7,pred,grocery store.png,6,4
13/04/2021 16:05:37,13/04/2021 11:05:33,48742,5,3598257,6065dd3e62bd91a2b471a822,Chrome 89.0.4389.114,reminder,5,SS7,28,Screen 1,response_keyboard,960.8399998396635,3,1,1,0,test_trial,SS7,pred,grocery store.png,1,3
13/04/2021 16:05:38,13/04/2021 11:05:34,48742,5,3598257,6065dd3e62bd91a2b471a822,Chrome 89.0.4389.114,reminder,5,SS7,29,Screen 1,response_keyboard,635.160000063479,2,1,1,0,test_trial,SS7,pred,grocery store.png,2,2
13/04/2021 16:05:39,13/04/2021 11:05:36,48742,5,3598257,6065dd3e62bd91a2b471a822,Chrome 89.0.4389.114,reminder,5,SS7,30,Screen 1,response_keyboard,703.6550000775605,4,1,1,0,test_trial,SS7,pred,grocery store.png,3,4
13/04/2021 16:05:41,13/04/2021 11:05:37,48742,5,3598257,6065dd3e62bd91a2b471a822,Chrome 89.0.4389.114,reminder,5,SS7,31,Screen 1,response_keyboard,781.8450001068413,2,1,1,0,test_trial,SS7,pred,grocery store.png,4,2
13/04/2021 16:05:42,13/04/2021 11:05:38,48742,5,3598257,6065dd3e62bd91a2b471a822,Chrome 89.0.4389.114,reminder,5,SS7,32,Screen 1,response_keyboard,731.4000001642853,1,1,1,0,test_trial,SS7,pred,grocery store.png,5,1
13/04/2021 16:05:43,13/04/2021 11:05:39,48742,5,3598257,6065dd3e62bd91a2b471a822,Chrome 89.0.4389.114,reminder,5,SS7,33,Screen 1,response_keyboard,639.4600002095103,4,1,1,0,test_trial,SS7,pred,grocery store.png,6,4
13/04/2021 16:07:19,13/04/2021 09:07:19,48742,5,3598452,5f556bd46e6c4c93a5a90c77,Chrome 89.0.4389.114,reminder,5,SS8,20,Screen 1,response_keyboard,2730.680000000575,3,1,1,0,test_trial,SS8,pred,pet store.png,1,3
13/04/2021 16:07:21,13/04/2021 09:07:21,48742,5,3598452,5f556bd46e6c4c93a5a90c77,Chrome 89.0.4389.114,reminder,5,SS8,21,Screen 1,response_keyboard,1464.7649999969872,2,1,1,0,test_trial,SS8,pred,pet store.png,2,2
13/04/2021 16:07:22,13/04/2021 09:07:22,48742,5,3598452,5f556bd46e6c4c93a5a90c77,Chrome 89.0.4389.114,reminder,5,SS8,22,Screen 1,response_keyboard,409.0500000020256,4,1,1,0,test_trial,SS8,pred,pet store.png,3,4
13/04/2021 16:07:24,13/04/2021 09:07:24,48742,5,3598452,5f556bd46e6c4c93a5a90c77,Chrome 89.0.4389.114,reminder,5,SS8,23,Screen 1,response_keyboard,1199.9849999992875,2,1,1,0,test_trial,SS8,pred,pet store.png,4,2
13/04/2021 16:07:25,13/04/2021 09:07:25,48742,5,3598452,5f556bd46e6c4c93a5a90c77,Chrome 89.0.4389.114,reminder,5,SS8,24,Screen 1,response_keyboard,394.0650000004098,1,1,1,0,test_trial,SS8,pred,pet store.png,5,1
13/04/2021 16:07:26,13/04/2021 09:07:26,48742,5,3598452,5f556bd46e6c4c93a5a90c77,Chrome 89.0.4389.114,reminder,5,SS8,25,Screen 1,response_keyboard,1047.470000004978,4,1,1,0,test_trial,SS8,pred,pet store.png,6,4
13/04/2021 16:07:33,13/04/2021 09:07:33,48742,5,3598452,5f556bd46e6c4c93a5a90c77,Chrome 89.0.4389.114,reminder,5,SS8,28,Screen 1,response_keyboard,2417.0349999985774,3,1,1,0,test_trial,SS8,pred,pet store.png,1,3
13/04/2021 16:07:35,13/04/2021 09:07:35,48742,5,3598452,5f556bd46e6c4c93a5a90c77,Chrome 89.0.4389.114,reminder,5,SS8,29,Screen 1,response_keyboard,720.5150000008871,2,1,1,0,test_trial,SS8,pred,pet store.png,2,2
13/04/2021 16:07:36,13/04/2021 09:07:36,48742,5,3598452,5f556bd46e6c4c93a5a90c77,Chrome 89.0.4389.114,reminder,5,SS8,30,Screen 1,response_keyboard,461.3750000062282,4,1,1,0,test_trial,SS8,pred,pet store.png,3,4
13/04/2021 16:07:37,13/04/2021 09:07:37,48742,5,3598452,5f556bd46e6c4c93a5a90c77,Chrome 89.0.4389.114,reminder,5,SS8,31,Screen 1,response_keyboard,851.5350000016042,2,1,1,0,test_trial,SS8,pred,pet store.png,4,2
13/04/2021 16:07:38,13/04/2021 09:07:38,48742,5,3598452,5f556bd46e6c4c93a5a90c77,Chrome 89.0.4389.114,reminder,5,SS8,32,Screen 1,response_keyboard,209.38500000193017,1,1,1,0,test_trial,SS8,pred,pet store.png,5,1
13/04/2021 16:07:39,13/04/2021 09:07:39,48742,5,3598452,5f556bd46e6c4c93a5a90c77,Chrome 89.0.4389.114,reminder,5,SS8,33,Screen 1,response_keyboard,298.6300000047777,4,1,1,0,test_trial,SS8,pred,pet store.png,6,4
13/04/2021 18:38:36,13/04/2021 13:38:39,48742,5,3600318,5d5f31230fc94a001c632b69,Firefox 87.0,reminder,5,SS4,20,Screen 1,response_keyboard,379,3,1,1,0,test_trial,SS4,pred,pet store.png,1,3
13/04/2021 18:38:37,13/04/2021 13:38:40,48742,5,3600318,5d5f31230fc94a001c632b69,Firefox 87.0,reminder,5,SS4,21,Screen 1,response_keyboard,281,2,1,1,0,test_trial,SS4,pred,pet store.png,2,2
13/04/2021 18:38:38,13/04/2021 13:38:41,48742,5,3600318,5d5f31230fc94a001c632b69,Firefox 87.0,reminder,5,SS4,22,Screen 1,response_keyboard,275,4,1,1,0,test_trial,SS4,pred,pet store.png,3,4
13/04/2021 18:38:39,13/04/2021 13:38:41,48742,5,3600318,5d5f31230fc94a001c632b69,Firefox 87.0,reminder,5,SS4,23,Screen 1,response_keyboard,275,2,1,1,0,test_trial,SS4,pred,pet store.png,4,2
13/04/2021 18:38:39,13/04/2021 13:38:42,48742,5,3600318,5d5f31230fc94a001c632b69,Firefox 87.0,reminder,5,SS4,24,Screen 1,response_keyboard,220,1,1,1,0,test_trial,SS4,pred,pet store.png,5,1
13/04/2021 18:38:40,13/04/2021 13:38:43,48742,5,3600318,5d5f31230fc94a001c632b69,Firefox 87.0,reminder,5,SS4,25,Screen 1,response_keyboard,205,4,1,1,0,test_trial,SS4,pred,pet store.png,6,4
13/04/2021 18:38:45,13/04/2021 13:38:48,48742,5,3600318,5d5f31230fc94a001c632b69,Firefox 87.0,reminder,5,SS4,28,Screen 1,response_keyboard,317,3,1,1,0,test_trial,SS4,pred,pet store.png,1,3
13/04/2021 18:38:46,13/04/2021 13:38:49,48742,5,3600318,5d5f31230fc94a001c632b69,Firefox 87.0,reminder,5,SS4,29,Screen 1,response_keyboard,112,2,1,1,0,test_trial,SS4,pred,pet store.png,2,2
13/04/2021 18:38:47,13/04/2021 13:38:49,48742,5,3600318,5d5f31230fc94a001c632b69,Firefox 87.0,reminder,5,SS4,30,Screen 1,response_keyboard,129,4,1,1,0,test_trial,SS4,pred,pet store.png,3,4
13/04/2021 18:38:47,13/04/2021 13:38:50,48742,5,3600318,5d5f31230fc94a001c632b69,Firefox 87.0,reminder,5,SS4,31,Screen 1,response_keyboard,87,2,1,1,0,test_trial,SS4,pred,pet store.png,4,2
13/04/2021 18:38:48,13/04/2021 13:38:50,48742,5,3600318,5d5f31230fc94a001c632b69,Firefox 87.0,reminder,5,SS4,32,Screen 1,response_keyboard,89,1,1,1,0,test_trial,SS4,pred,pet store.png,5,1
13/04/2021 18:38:48,13/04/2021 13:38:51,48742,5,3600318,5d5f31230fc94a001c632b69,Firefox 87.0,reminder,5,SS4,33,Screen 1,response_keyboard,120,4,1,1,0,test_trial,SS4,pred,pet store.png,6,4
13/04/2021 18:39:42,13/04/2021 13:39:43,48742,5,3600326,5e9e19d808b9931ef37373c6,Chrome 89.0.4389.114,reminder,5,SS3,20,Screen 1,response_keyboard,721.5249999426305,3,1,1,0,test_trial,SS3,pred,grocery store.png,1,3
13/04/2021 18:39:43,13/04/2021 13:39:44,48742,5,3600326,5e9e19d808b9931ef37373c6,Chrome 89.0.4389.114,reminder,5,SS3,21,Screen 1,response_keyboard,165.1099999435246,2,1,1,0,test_trial,SS3,pred,grocery store.png,2,2
13/04/2021 18:39:44,13/04/2021 13:39:45,48742,5,3600326,5e9e19d808b9931ef37373c6,Chrome 89.0.4389.114,reminder,5,SS3,22,Screen 1,response_keyboard,217.26499998476356,4,1,1,0,test_trial,SS3,pred,grocery store.png,3,4
13/04/2021 18:39:45,13/04/2021 13:39:46,48742,5,3600326,5e9e19d808b9931ef37373c6,Chrome 89.0.4389.114,reminder,5,SS3,23,Screen 1,response_keyboard,164.81999994721264,2,1,1,0,test_trial,SS3,pred,grocery store.png,4,2
13/04/2021 18:39:46,13/04/2021 13:39:46,48742,5,3600326,5e9e19d808b9931ef37373c6,Chrome 89.0.4389.114,reminder,5,SS3,24,Screen 1,response_keyboard,50.51499989349395,1,1,1,0,test_trial,SS3,pred,grocery store.png,5,1
13/04/2021 18:39:46,13/04/2021 13:39:47,48742,5,3600326,5e9e19d808b9931ef37373c6,Chrome 89.0.4389.114,reminder,5,SS3,25,Screen 1,response_keyboard,59.16499998420477,4,1,1,0,test_trial,SS3,pred,grocery store.png,6,4
13/04/2021 18:39:52,13/04/2021 13:39:53,48742,5,3600326,5e9e19d808b9931ef37373c6,Chrome 89.0.4389.114,reminder,5,SS3,28,Screen 1,response_keyboard,597.0550000201911,3,1,1,0,test_trial,SS3,pred,grocery store.png,1,3
13/04/2021 18:39:52,13/04/2021 13:39:53,48742,5,3600326,5e9e19d808b9931ef37373c6,Chrome 89.0.4389.114,reminder,5,SS3,29,Screen 1,response_keyboard,10.200000018812716,2,1,1,0,test_trial,SS3,pred,grocery store.png,2,2
13/04/2021 18:39:53,13/04/2021 13:39:54,48742,5,3600326,5e9e19d808b9931ef37373c6,Chrome 89.0.4389.114,reminder,5,SS3,30,Screen 1,response_keyboard,155.71000007912517,4,1,1,0,test_trial,SS3,pred,grocery store.png,3,4
13/04/2021 18:39:54,13/04/2021 13:39:55,48742,5,3600326,5e9e19d808b9931ef37373c6,Chrome 89.0.4389.114,reminder,5,SS3,31,Screen 1,response_keyboard,10.759999975562096,2,1,1,0,test_trial,SS3,pred,grocery store.png,4,2
13/04/2021 18:39:54,13/04/2021 13:39:55,48742,5,3600326,5e9e19d808b9931ef37373c6,Chrome 89.0.4389.114,reminder,5,SS3,32,Screen 1,response_keyboard,100.24499997962266,1,1,1,0,test_trial,SS3,pred,grocery store.png,5,1
13/04/2021 18:39:56,13/04/2021 13:39:56,48742,5,3600326,5e9e19d808b9931ef37373c6,Chrome 89.0.4389.114,reminder,5,SS3,33,Screen 1,response_keyboard,773.8700000336394,4,1,1,0,test_trial,SS3,pred,grocery store.png,6,4
13/04/2021 18:40:07,13/04/2021 14:40:08,48742,5,3600319,604a1b61bc2fc51feb3a6203,Chrome 89.0.4389.114,reminder,5,SS6,20,Screen 1,response_keyboard,618.2249999983469,1,1,1,0,test_trial,SS6,pred,pet store.png,1,1
13/04/2021 18:40:08,13/04/2021 14:40:09,48742,5,3600319,604a1b61bc2fc51feb3a6203,Chrome 89.0.4389.114,reminder,5,SS6,21,Screen 1,response_keyboard,335.81499999854714,4,1,1,0,test_trial,SS6,pred,pet store.png,2,4
13/04/2021 18:40:09,13/04/2021 14:40:10,48742,5,3600319,604a1b61bc2fc51feb3a6203,Chrome 89.0.4389.114,reminder,5,SS6,22,Screen 1,response_keyboard,412.16500000155065,3,1,1,0,test_trial,SS6,pred,pet store.png,3,3
13/04/2021 18:40:10,13/04/2021 14:40:11,48742,5,3600319,604a1b61bc2fc51feb3a6203,Chrome 89.0.4389.114,reminder,5,SS6,23,Screen 1,response_keyboard,313.34000000788365,4,1,1,0,test_trial,SS6,pred,pet store.png,4,4
13/04/2021 18:40:11,13/04/2021 14:40:12,48742,5,3600319,604a1b61bc2fc51feb3a6203,Chrome 89.0.4389.114,reminder,5,SS6,24,Screen 1,response_keyboard,455.8300000062445,2,1,1,0,test_trial,SS6,pred,pet store.png,5,2
13/04/2021 18:40:12,13/04/2021 14:40:13,48742,5,3600319,604a1b61bc2fc51feb3a6203,Chrome 89.0.4389.114,reminder,5,SS6,25,Screen 1,response_keyboard,576.6849999927217,3,1,1,0,test_trial,SS6,pred,pet store.png,6,3
13/04/2021 18:40:18,13/04/2021 14:40:18,48742,5,3600319,604a1b61bc2fc51feb3a6203,Chrome 89.0.4389.114,reminder,5,SS6,28,Screen 1,response_keyboard,763.6799999891082,1,1,1,0,test_trial,SS6,pred,pet store.png,1,1
13/04/2021 18:40:19,13/04/2021 14:40:19,48742,5,3600319,604a1b61bc2fc51feb3a6203,Chrome 89.0.4389.114,reminder,5,SS6,29,Screen 1,response_keyboard,337.455000000773,4,1,1,0,test_trial,SS6,pred,pet store.png,2,4
13/04/2021 18:40:20,13/04/2021 14:40:20,48742,5,3600319,604a1b61bc2fc51feb3a6203,Chrome 89.0.4389.114,reminder,5,SS6,30,Screen 1,response_keyboard,322.92999999481253,3,1,1,0,test_trial,SS6,pred,pet store.png,3,3
13/04/2021 18:40:21,13/04/2021 14:40:21,48742,5,3600319,604a1b61bc2fc51feb3a6203,Chrome 89.0.4389.114,reminder,5,SS6,31,Screen 1,response_keyboard,306.06499999703374,4,1,1,0,test_trial,SS6,pred,pet store.png,4,4
13/04/2021 18:40:22,13/04/2021 14:40:22,48742,5,3600319,604a1b61bc2fc51feb3a6203,Chrome 89.0.4389.114,reminder,5,SS6,32,Screen 1,response_keyboard,258.0349999916507,2,1,1,0,test_trial,SS6,pred,pet store.png,5,2
13/04/2021 18:40:22,13/04/2021 14:40:23,48742,5,3600319,604a1b61bc2fc51feb3a6203,Chrome 89.0.4389.114,reminder,5,SS6,33,Screen 1,response_keyboard,226.82999999960884,3,1,1,0,test_trial,SS6,pred,pet store.png,6,3
13/04/2021 18:42:43,13/04/2021 11:42:44,48742,5,3600335,5f6e7ce18d7ea83c39acc2d5,Chrome 89.0.4389.114,reminder,5,SS5,20,Screen 1,response_keyboard,488.29000000841916,1,1,1,0,test_trial,SS5,pred,grocery store.png,1,1
13/04/2021 18:42:44,13/04/2021 11:42:45,48742,5,3600335,5f6e7ce18d7ea83c39acc2d5,Chrome 89.0.4389.114,reminder,5,SS5,21,Screen 1,response_keyboard,306.7849999642931,4,1,1,0,test_trial,SS5,pred,grocery store.png,2,4
13/04/2021 18:42:45,13/04/2021 11:42:45,48742,5,3600335,5f6e7ce18d7ea83c39acc2d5,Chrome 89.0.4389.114,reminder,5,SS5,22,Screen 1,response_keyboard,237.2600000235252,3,1,1,0,test_trial,SS5,pred,grocery store.png,3,3
13/04/2021 18:42:46,13/04/2021 11:42:46,48742,5,3600335,5f6e7ce18d7ea83c39acc2d5,Chrome 89.0.4389.114,reminder,5,SS5,23,Screen 1,response_keyboard,252.25499999942258,4,1,1,0,test_trial,SS5,pred,grocery store.png,4,4
13/04/2021 18:42:47,13/04/2021 11:42:47,48742,5,3600335,5f6e7ce18d7ea83c39acc2d5,Chrome 89.0.4389.114,reminder,5,SS5,24,Screen 1,response_keyboard,244.80500002391636,2,1,1,0,test_trial,SS5,pred,grocery store.png,5,2
13/04/2021 18:42:47,13/04/2021 11:42:48,48742,5,3600335,5f6e7ce18d7ea83c39acc2d5,Chrome 89.0.4389.114,reminder,5,SS5,25,Screen 1,response_keyboard,211.84000000357628,3,1,1,0,test_trial,SS5,pred,grocery store.png,6,3
13/04/2021 18:42:53,13/04/2021 11:42:53,48742,5,3600335,5f6e7ce18d7ea83c39acc2d5,Chrome 89.0.4389.114,reminder,5,SS5,28,Screen 1,response_keyboard,695.160000002943,1,1,1,0,test_trial,SS5,pred,grocery store.png,1,1
13/04/2021 18:42:54,13/04/2021 11:42:54,48742,5,3600335,5f6e7ce18d7ea83c39acc2d5,Chrome 89.0.4389.114,reminder,5,SS5,29,Screen 1,response_keyboard,283.4700000239536,4,1,1,0,test_trial,SS5,pred,grocery store.png,2,4
13/04/2021 18:42:54,13/04/2021 11:42:55,48742,5,3600335,5f6e7ce18d7ea83c39acc2d5,Chrome 89.0.4389.114,reminder,5,SS5,30,Screen 1,response_keyboard,262.6000000163913,3,1,1,0,test_trial,SS5,pred,grocery store.png,3,3
13/04/2021 18:42:55,13/04/2021 11:42:56,48742,5,3600335,5f6e7ce18d7ea83c39acc2d5,Chrome 89.0.4389.114,reminder,5,SS5,31,Screen 1,response_keyboard,234.46000000694767,4,1,1,0,test_trial,SS5,pred,grocery store.png,4,4
13/04/2021 18:42:56,13/04/2021 11:42:56,48742,5,3600335,5f6e7ce18d7ea83c39acc2d5,Chrome 89.0.4389.114,reminder,5,SS5,32,Screen 1,response_keyboard,259.8199999774806,2,1,1,0,test_trial,SS5,pred,grocery store.png,5,2
13/04/2021 18:42:57,13/04/2021 11:42:57,48742,5,3600335,5f6e7ce18d7ea83c39acc2d5,Chrome 89.0.4389.114,reminder,5,SS5,33,Screen 1,response_keyboard,264.30499996058643,3,1,1,0,test_trial,SS5,pred,grocery store.png,6,3
13/04/2021 18:45:30,13/04/2021 14:45:29,48742,5,3600368,5e815773285d3883ba2fbbcf,Chrome 89.0.4389.114,reminder,5,SS4,20,Screen 1,response_keyboard,1094.590000109747,3,1,1,0,test_trial,SS4,pred,pet store.png,1,3
13/04/2021 18:45:31,13/04/2021 14:45:31,48742,5,3600368,5e815773285d3883ba2fbbcf,Chrome 89.0.4389.114,reminder,5,SS4,21,Screen 1,response_keyboard,759.6599999815226,2,1,1,0,test_trial,SS4,pred,pet store.png,2,2
13/04/2021 18:45:32,13/04/2021 14:45:31,48742,5,3600368,5e815773285d3883ba2fbbcf,Chrome 89.0.4389.114,reminder,5,SS4,22,Screen 1,response_keyboard,384.03000007383525,4,1,1,0,test_trial,SS4,pred,pet store.png,3,4
13/04/2021 18:45:33,13/04/2021 14:45:33,48742,5,3600368,5e815773285d3883ba2fbbcf,Chrome 89.0.4389.114,reminder,5,SS4,23,Screen 1,response_keyboard,550.3649997990578,2,1,1,0,test_trial,SS4,pred,pet store.png,4,2
13/04/2021 18:45:34,13/04/2021 14:45:33,48742,5,3600368,5e815773285d3883ba2fbbcf,Chrome 89.0.4389.114,reminder,5,SS4,24,Screen 1,response_keyboard,327.189999865368,1,1,1,0,test_trial,SS4,pred,pet store.png,5,1
13/04/2021 18:45:34,13/04/2021 14:45:34,48742,5,3600368,5e815773285d3883ba2fbbcf,Chrome 89.0.4389.114,reminder,5,SS4,25,Screen 1,response_keyboard,280.62500013038516,4,1,1,0,test_trial,SS4,pred,pet store.png,6,4
13/04/2021 18:45:40,13/04/2021 14:45:39,48742,5,3600368,5e815773285d3883ba2fbbcf,Chrome 89.0.4389.114,reminder,5,SS4,28,Screen 1,response_keyboard,508.3349999040365,3,1,1,0,test_trial,SS4,pred,pet store.png,1,3
13/04/2021 18:45:41,13/04/2021 14:45:40,48742,5,3600368,5e815773285d3883ba2fbbcf,Chrome 89.0.4389.114,reminder,5,SS4,29,Screen 1,response_keyboard,275.1250001601875,2,1,1,0,test_trial,SS4,pred,pet store.png,2,2
13/04/2021 18:45:41,13/04/2021 14:45:41,48742,5,3600368,5e815773285d3883ba2fbbcf,Chrome 89.0.4389.114,reminder,5,SS4,30,Screen 1,response_keyboard,296.36000003665686,4,1,1,0,test_trial,SS4,pred,pet store.png,3,4
13/04/2021 18:45:42,13/04/2021 14:45:42,48742,5,3600368,5e815773285d3883ba2fbbcf,Chrome 89.0.4389.114,reminder,5,SS4,31,Screen 1,response_keyboard,468.44500000588596,2,1,1,0,test_trial,SS4,pred,pet store.png,4,2
13/04/2021 18:45:43,13/04/2021 14:45:43,48742,5,3600368,5e815773285d3883ba2fbbcf,Chrome 89.0.4389.114,reminder,5,SS4,32,Screen 1,response_keyboard,239.15999988093972,1,1,1,0,test_trial,SS4,pred,pet store.png,5,1
13/04/2021 18:45:44,13/04/2021 14:45:43,48742,5,3600368,5e815773285d3883ba2fbbcf,Chrome 89.0.4389.114,reminder,5,SS4,33,Screen 1,response_keyboard,143.87500006705523,4,1,1,0,test_trial,SS4,pred,pet store.png,6,4
13/04/2021 18:45:31,13/04/2021 14:45:29,48742,5,3600351,5fda1e659df7fa12561ec08a,Chrome 89.0.4389.114,reminder,5,SS4,20,Screen 1,response_keyboard,805.2150000003166,3,1,1,0,test_trial,SS4,pred,pet store.png,1,3
13/04/2021 18:45:32,13/04/2021 14:45:30,48742,5,3600351,5fda1e659df7fa12561ec08a,Chrome 89.0.4389.114,reminder,5,SS4,21,Screen 1,response_keyboard,523.6250000016298,2,1,1,0,test_trial,SS4,pred,pet store.png,2,2
13/04/2021 18:45:33,13/04/2021 14:45:31,48742,5,3600351,5fda1e659df7fa12561ec08a,Chrome 89.0.4389.114,reminder,5,SS4,22,Screen 1,response_keyboard,270.9150000009686,4,1,1,0,test_trial,SS4,pred,pet store.png,3,4
13/04/2021 18:45:34,13/04/2021 14:45:32,48742,5,3600351,5fda1e659df7fa12561ec08a,Chrome 89.0.4389.114,reminder,5,SS4,23,Screen 1,response_keyboard,314.4700000011653,1,1,0,0,test_trial,SS4,pred,pet store.png,4,2
13/04/2021 18:45:35,13/04/2021 14:45:33,48742,5,3600351,5fda1e659df7fa12561ec08a,Chrome 89.0.4389.114,reminder,5,SS4,24,Screen 1,response_keyboard,478.01999999865075,2,1,0,0,test_trial,SS4,pred,pet store.png,5,1
13/04/2021 18:45:36,13/04/2021 14:45:34,48742,5,3600351,5fda1e659df7fa12561ec08a,Chrome 89.0.4389.114,reminder,5,SS4,25,Screen 1,response_keyboard,745.2400000001944,4,1,1,0,test_trial,SS4,pred,pet store.png,6,4
13/04/2021 18:45:43,13/04/2021 14:45:40,48742,5,3600351,5fda1e659df7fa12561ec08a,Chrome 89.0.4389.114,reminder,5,SS4,28,Screen 1,response_keyboard,1348.935000001802,3,1,1,0,test_trial,SS4,pred,pet store.png,1,3
13/04/2021 18:45:43,13/04/2021 14:45:41,48742,5,3600351,5fda1e659df7fa12561ec08a,Chrome 89.0.4389.114,reminder,5,SS4,29,Screen 1,response_keyboard,325.15000000057626,2,1,1,0,test_trial,SS4,pred,pet store.png,2,2
13/04/2021 18:45:44,13/04/2021 14:45:42,48742,5,3600351,5fda1e659df7fa12561ec08a,Chrome 89.0.4389.114,reminder,5,SS4,30,Screen 1,response_keyboard,34.79000000152155,4,1,1,0,test_trial,SS4,pred,pet store.png,3,4
13/04/2021 18:45:45,13/04/2021 14:45:43,48742,5,3600351,5fda1e659df7fa12561ec08a,Chrome 89.0.4389.114,reminder,5,SS4,31,Screen 1,response_keyboard,199.6499999986554,2,1,1,0,test_trial,SS4,pred,pet store.png,4,2
13/04/2021 18:45:46,13/04/2021 14:45:43,48742,5,3600351,5fda1e659df7fa12561ec08a,Chrome 89.0.4389.114,reminder,5,SS4,32,Screen 1,response_keyboard,84.28499999718042,1,1,1,0,test_trial,SS4,pred,pet store.png,5,1
13/04/2021 18:45:46,13/04/2021 14:45:44,48742,5,3600351,5fda1e659df7fa12561ec08a,Chrome 89.0.4389.114,reminder,5,SS4,33,Screen 1,response_keyboard,36.090000001422595,4,1,1,0,test_trial,SS4,pred,pet store.png,6,4
13/04/2021 18:47:51,13/04/2021 13:47:52,48742,5,3600356,5f48734f9e842533dfc67249,Chrome 89.0.4389.114,reminder,5,SS7,20,Screen 1,response_keyboard,286.69999999692664,3,1,1,0,test_trial,SS7,pred,grocery store.png,1,3
13/04/2021 18:47:52,13/04/2021 13:47:53,48742,5,3600356,5f48734f9e842533dfc67249,Chrome 89.0.4389.114,reminder,5,SS7,21,Screen 1,response_keyboard,271.53999998699874,2,1,1,0,test_trial,SS7,pred,grocery store.png,2,2
13/04/2021 18:47:53,13/04/2021 13:47:54,48742,5,3600356,5f48734f9e842533dfc67249,Chrome 89.0.4389.114,reminder,5,SS7,22,Screen 1,response_keyboard,405.68999998504296,4,1,1,0,test_trial,SS7,pred,grocery store.png,3,4
13/04/2021 18:47:54,13/04/2021 13:47:55,48742,5,3600356,5f48734f9e842533dfc67249,Chrome 89.0.4389.114,reminder,5,SS7,23,Screen 1,response_keyboard,262.55000004312024,2,1,1,0,test_trial,SS7,pred,grocery store.png,4,2
13/04/2021 18:47:54,13/04/2021 13:47:55,48742,5,3600356,5f48734f9e842533dfc67249,Chrome 89.0.4389.114,reminder,5,SS7,24,Screen 1,response_keyboard,150.52500000456348,1,1,1,0,test_trial,SS7,pred,grocery store.png,5,1
13/04/2021 18:47:55,13/04/2021 13:47:56,48742,5,3600356,5f48734f9e842533dfc67249,Chrome 89.0.4389.114,reminder,5,SS7,25,Screen 1,response_keyboard,59.83499996364117,4,1,1,0,test_trial,SS7,pred,grocery store.png,6,4
13/04/2021 18:48:00,13/04/2021 13:48:01,48742,5,3600356,5f48734f9e842533dfc67249,Chrome 89.0.4389.114,reminder,5,SS7,28,Screen 1,response_keyboard,396.0899999947287,3,1,1,0,test_trial,SS7,pred,grocery store.png,1,3
13/04/2021 18:48:01,13/04/2021 13:48:02,48742,5,3600356,5f48734f9e842533dfc67249,Chrome 89.0.4389.114,reminder,5,SS7,29,Screen 1,response_keyboard,252.1199999609962,2,1,1,0,test_trial,SS7,pred,grocery store.png,2,2
13/04/2021 18:48:02,13/04/2021 13:48:02,48742,5,3600356,5f48734f9e842533dfc67249,Chrome 89.0.4389.114,reminder,5,SS7,30,Screen 1,response_keyboard,165.06999998819083,4,1,1,0,test_trial,SS7,pred,grocery store.png,3,4
13/04/2021 18:48:02,13/04/2021 13:48:03,48742,5,3600356,5f48734f9e842533dfc67249,Chrome 89.0.4389.114,reminder,5,SS7,31,Screen 1,response_keyboard,175.249999971129,2,1,1,0,test_trial,SS7,pred,grocery store.png,4,2
13/04/2021 18:48:03,13/04/2021 13:48:04,48742,5,3600356,5f48734f9e842533dfc67249,Chrome 89.0.4389.114,reminder,5,SS7,32,Screen 1,response_keyboard,108.53999998653308,1,1,1,0,test_trial,SS7,pred,grocery store.png,5,1
13/04/2021 18:48:04,13/04/2021 13:48:04,48742,5,3600356,5f48734f9e842533dfc67249,Chrome 89.0.4389.114,reminder,5,SS7,33,Screen 1,response_keyboard,58.904999983496964,4,1,1,0,test_trial,SS7,pred,grocery store.png,6,4
13/04/2021 18:50:55,13/04/2021 13:50:54,48742,5,3600358,60284ba64dc0f46ed3e37bb6,Chrome 88.0.4324.192,reminder,5,SS6,20,Screen 1,response_keyboard,710.9999998938292,1,1,1,0,test_trial,SS6,pred,pet store.png,1,1
13/04/2021 18:50:56,13/04/2021 13:50:56,48742,5,3600358,60284ba64dc0f46ed3e37bb6,Chrome 88.0.4324.192,reminder,5,SS6,21,Screen 1,response_keyboard,662.830000044778,4,1,1,0,test_trial,SS6,pred,pet store.png,2,4
13/04/2021 18:50:57,13/04/2021 13:50:57,48742,5,3600358,60284ba64dc0f46ed3e37bb6,Chrome 88.0.4324.192,reminder,5,SS6,22,Screen 1,response_keyboard,471.4550001081079,3,1,1,0,test_trial,SS6,pred,pet store.png,3,3
13/04/2021 18:50:58,13/04/2021 13:50:58,48742,5,3600358,60284ba64dc0f46ed3e37bb6,Chrome 88.0.4324.192,reminder,5,SS6,23,Screen 1,response_keyboard,474.62500003166497,4,1,1,0,test_trial,SS6,pred,pet store.png,4,4
13/04/2021 18:50:59,13/04/2021 13:50:59,48742,5,3600358,60284ba64dc0f46ed3e37bb6,Chrome 88.0.4324.192,reminder,5,SS6,24,Screen 1,response_keyboard,488.79000009037554,2,1,1,0,test_trial,SS6,pred,pet store.png,5,2
13/04/2021 18:51:00,13/04/2021 13:51:00,48742,5,3600358,60284ba64dc0f46ed3e37bb6,Chrome 88.0.4324.192,reminder,5,SS6,25,Screen 1,response_keyboard,420.7049999386072,3,1,1,0,test_trial,SS6,pred,pet store.png,6,3
13/04/2021 18:51:05,13/04/2021 13:51:05,48742,5,3600358,60284ba64dc0f46ed3e37bb6,Chrome 88.0.4324.192,reminder,5,SS6,28,Screen 1,response_keyboard,640.9150001127273,1,1,1,0,test_trial,SS6,pred,pet store.png,1,1
13/04/2021 18:51:06,13/04/2021 13:51:06,48742,5,3600358,60284ba64dc0f46ed3e37bb6,Chrome 88.0.4324.192,reminder,5,SS6,29,Screen 1,response_keyboard,503.87499993667006,4,1,1,0,test_trial,SS6,pred,pet store.png,2,4
13/04/2021 18:51:07,13/04/2021 13:51:07,48742,5,3600358,60284ba64dc0f46ed3e37bb6,Chrome 88.0.4324.192,reminder,5,SS6,30,Screen 1,response_keyboard,462.4550000298768,3,1,1,0,test_trial,SS6,pred,pet store.png,3,3
13/04/2021 18:51:08,13/04/2021 13:51:08,48742,5,3600358,60284ba64dc0f46ed3e37bb6,Chrome 88.0.4324.192,reminder,5,SS6,31,Screen 1,response_keyboard,428.54500003159046,4,1,1,0,test_trial,SS6,pred,pet store.png,4,4
13/04/2021 18:51:09,13/04/2021 13:51:09,48742,5,3600358,60284ba64dc0f46ed3e37bb6,Chrome 88.0.4324.192,reminder,5,SS6,32,Screen 1,response_keyboard,487.66000010073185,2,1,1,0,test_trial,SS6,pred,pet store.png,5,2
13/04/2021 18:51:10,13/04/2021 13:51:10,48742,5,3600358,60284ba64dc0f46ed3e37bb6,Chrome 88.0.4324.192,reminder,5,SS6,33,Screen 1,response_keyboard,434.5000002067536,3,1,1,0,test_trial,SS6,pred,pet store.png,6,3
13/04/2021 18:51:47,13/04/2021 14:51:45,48742,5,3600332,58add4364d580c0001e0bf38,Firefox 87.0,reminder,5,SS1,20,Screen 1,response_keyboard,1843,1,1,1,0,test_trial,SS1,pred,grocery store.png,1,1
13/04/2021 18:51:47,13/04/2021 14:51:46,48742,5,3600332,58add4364d580c0001e0bf38,Firefox 87.0,reminder,5,SS1,21,Screen 1,response_keyboard,51,4,1,1,0,test_trial,SS1,pred,grocery store.png,2,4
13/04/2021 18:51:49,13/04/2021 14:51:47,48742,5,3600332,58add4364d580c0001e0bf38,Firefox 87.0,reminder,5,SS1,22,Screen 1,response_keyboard,830,3,1,1,0,test_trial,SS1,pred,grocery store.png,3,3
13/04/2021 18:51:50,13/04/2021 14:51:49,48742,5,3600332,58add4364d580c0001e0bf38,Firefox 87.0,reminder,5,SS1,23,Screen 1,response_keyboard,988,4,1,1,0,test_trial,SS1,pred,grocery store.png,4,4
13/04/2021 18:51:51,13/04/2021 14:51:50,48742,5,3600332,58add4364d580c0001e0bf38,Firefox 87.0,reminder,5,SS1,24,Screen 1,response_keyboard,282,2,1,1,0,test_trial,SS1,pred,grocery store.png,5,2
13/04/2021 18:51:52,13/04/2021 14:51:50,48742,5,3600332,58add4364d580c0001e0bf38,Firefox 87.0,reminder,5,SS1,25,Screen 1,response_keyboard,174,3,1,1,0,test_trial,SS1,pred,grocery store.png,6,3
13/04/2021 18:51:57,13/04/2021 14:51:56,48742,5,3600332,58add4364d580c0001e0bf38,Firefox 87.0,reminder,5,SS1,28,Screen 1,response_keyboard,545,1,1,1,0,test_trial,SS1,pred,grocery store.png,1,1
13/04/2021 18:51:58,13/04/2021 14:51:56,48742,5,3600332,58add4364d580c0001e0bf38,Firefox 87.0,reminder,5,SS1,29,Screen 1,response_keyboard,173,4,1,1,0,test_trial,SS1,pred,grocery store.png,2,4
13/04/2021 18:51:59,13/04/2021 14:51:57,48742,5,3600332,58add4364d580c0001e0bf38,Firefox 87.0,reminder,5,SS1,30,Screen 1,response_keyboard,204,3,1,1,0,test_trial,SS1,pred,grocery store.png,3,3
13/04/2021 18:51:59,13/04/2021 14:51:58,48742,5,3600332,58add4364d580c0001e0bf38,Firefox 87.0,reminder,5,SS1,31,Screen 1,response_keyboard,171,4,1,1,0,test_trial,SS1,pred,grocery store.png,4,4
13/04/2021 18:52:00,13/04/2021 14:51:59,48742,5,3600332,58add4364d580c0001e0bf38,Firefox 87.0,reminder,5,SS1,32,Screen 1,response_keyboard,149,2,1,1,0,test_trial,SS1,pred,grocery store.png,5,2
13/04/2021 18:52:01,13/04/2021 14:51:59,48742,5,3600332,58add4364d580c0001e0bf38,Firefox 87.0,reminder,5,SS1,33,Screen 1,response_keyboard,171,3,1,1,0,test_trial,SS1,pred,grocery store.png,6,3
13/04/2021 19:03:13,13/04/2021 14:03:29,48742,5,3600385,5ffb6a7ad424e65d160a44ea,Firefox 87.0,reminder,5,SS1,20,Screen 1,response_keyboard,824,1,1,1,0,test_trial,SS1,pred,grocery store.png,1,1
13/04/2021 19:03:14,13/04/2021 14:03:30,48742,5,3600385,5ffb6a7ad424e65d160a44ea,Firefox 87.0,reminder,5,SS1,21,Screen 1,response_keyboard,448,4,1,1,0,test_trial,SS1,pred,grocery store.png,2,4
13/04/2021 19:03:15,13/04/2021 14:03:31,48742,5,3600385,5ffb6a7ad424e65d160a44ea,Firefox 87.0,reminder,5,SS1,22,Screen 1,response_keyboard,421,3,1,1,0,test_trial,SS1,pred,grocery store.png,3,3
13/04/2021 19:03:16,13/04/2021 14:03:32,48742,5,3600385,5ffb6a7ad424e65d160a44ea,Firefox 87.0,reminder,5,SS1,23,Screen 1,response_keyboard,446,4,1,1,0,test_trial,SS1,pred,grocery store.png,4,4
13/04/2021 19:03:17,13/04/2021 14:03:33,48742,5,3600385,5ffb6a7ad424e65d160a44ea,Firefox 87.0,reminder,5,SS1,24,Screen 1,response_keyboard,4,2,1,1,0,test_trial,SS1,pred,grocery store.png,5,2
13/04/2021 19:03:20,13/04/2021 14:03:36,48742,5,3600385,5ffb6a7ad424e65d160a44ea,Firefox 87.0,reminder,5,SS1,25,Screen 1,response_keyboard,2509,3,1,1,0,test_trial,SS1,pred,grocery store.png,6,3
13/04/2021 19:03:25,13/04/2021 14:03:41,48742,5,3600385,5ffb6a7ad424e65d160a44ea,Firefox 87.0,reminder,5,SS1,28,Screen 1,response_keyboard,797,1,1,1,0,test_trial,SS1,pred,grocery store.png,1,1
13/04/2021 19:03:26,13/04/2021 14:03:42,48742,5,3600385,5ffb6a7ad424e65d160a44ea,Firefox 87.0,reminder,5,SS1,29,Screen 1,response_keyboard,466,4,1,1,0,test_trial,SS1,pred,grocery store.png,2,4
13/04/2021 19:03:28,13/04/2021 14:03:44,48742,5,3600385,5ffb6a7ad424e65d160a44ea,Firefox 87.0,reminder,5,SS1,30,Screen 1,response_keyboard,923,3,1,1,0,test_trial,SS1,pred,grocery store.png,3,3
13/04/2021 19:03:30,13/04/2021 14:03:46,48742,5,3600385,5ffb6a7ad424e65d160a44ea,Firefox 87.0,reminder,5,SS1,31,Screen 1,response_keyboard,1573,4,1,1,0,test_trial,SS1,pred,grocery store.png,4,4
13/04/2021 19:03:31,13/04/2021 14:03:47,48742,5,3600385,5ffb6a7ad424e65d160a44ea,Firefox 87.0,reminder,5,SS1,32,Screen 1,response_keyboard,387,2,1,1,0,test_trial,SS1,pred,grocery store.png,5,2
13/04/2021 19:03:32,13/04/2021 14:03:48,48742,5,3600385,5ffb6a7ad424e65d160a44ea,Firefox 87.0,reminder,5,SS1,33,Screen 1,response_keyboard,756,3,1,1,0,test_trial,SS1,pred,grocery store.png,6,3
13/04/2021 19:07:56,13/04/2021 14:07:56,48742,5,3600469,60117c5b37b7fa080e5efca9,Chrome 89.0.4389.114,reminder,5,SS3,20,Screen 1,response_keyboard,684.4199999977718,3,1,1,0,test_trial,SS3,pred,grocery store.png,1,3
13/04/2021 19:07:57,13/04/2021 14:07:57,48742,5,3600469,60117c5b37b7fa080e5efca9,Chrome 89.0.4389.114,reminder,5,SS3,21,Screen 1,response_keyboard,489.6999999982654,2,1,1,0,test_trial,SS3,pred,grocery store.png,2,2
13/04/2021 19:07:58,13/04/2021 14:07:58,48742,5,3600469,60117c5b37b7fa080e5efca9,Chrome 89.0.4389.114,reminder,5,SS3,22,Screen 1,response_keyboard,437.29999999777647,4,1,1,0,test_trial,SS3,pred,grocery store.png,3,4
13/04/2021 19:07:59,13/04/2021 14:07:59,48742,5,3600469,60117c5b37b7fa080e5efca9,Chrome 89.0.4389.114,reminder,5,SS3,23,Screen 1,response_keyboard,373.79499999951804,2,1,1,0,test_trial,SS3,pred,grocery store.png,4,2
13/04/2021 19:08:00,13/04/2021 14:08:00,48742,5,3600469,60117c5b37b7fa080e5efca9,Chrome 89.0.4389.114,reminder,5,SS3,24,Screen 1,response_keyboard,435.33000000024913,1,1,1,0,test_trial,SS3,pred,grocery store.png,5,1
13/04/2021 19:08:01,13/04/2021 14:08:00,48742,5,3600469,60117c5b37b7fa080e5efca9,Chrome 89.0.4389.114,reminder,5,SS3,25,Screen 1,response_keyboard,415.63000000314787,4,1,1,0,test_trial,SS3,pred,grocery store.png,6,4
13/04/2021 19:08:07,13/04/2021 14:08:07,48742,5,3600469,60117c5b37b7fa080e5efca9,Chrome 89.0.4389.114,reminder,5,SS3,28,Screen 1,response_keyboard,1385.8200000031502,3,1,1,0,test_trial,SS3,pred,grocery store.png,1,3
13/04/2021 19:08:08,13/04/2021 14:08:08,48742,5,3600469,60117c5b37b7fa080e5efca9,Chrome 89.0.4389.114,reminder,5,SS3,29,Screen 1,response_keyboard,555.7400000034249,2,1,1,0,test_trial,SS3,pred,grocery store.png,2,2
13/04/2021 19:08:09,13/04/2021 14:08:09,48742,5,3600469,60117c5b37b7fa080e5efca9,Chrome 89.0.4389.114,reminder,5,SS3,30,Screen 1,response_keyboard,319.8499999998603,4,1,1,0,test_trial,SS3,pred,grocery store.png,3,4
13/04/2021 19:08:10,13/04/2021 14:08:09,48742,5,3600469,60117c5b37b7fa080e5efca9,Chrome 89.0.4389.114,reminder,5,SS3,31,Screen 1,response_keyboard,395.2449999997043,2,1,1,0,test_trial,SS3,pred,grocery store.png,4,2
13/04/2021 19:08:11,13/04/2021 14:08:10,48742,5,3600469,60117c5b37b7fa080e5efca9,Chrome 89.0.4389.114,reminder,5,SS3,32,Screen 1,response_keyboard,348.9499999996042,1,1,1,0,test_trial,SS3,pred,grocery store.png,5,1
13/04/2021 19:08:11,13/04/2021 14:08:11,48742,5,3600469,60117c5b37b7fa080e5efca9,Chrome 89.0.4389.114,reminder,5,SS3,33,Screen 1,response_keyboard,190.50499999866588,4,1,1,0,test_trial,SS3,pred,grocery store.png,6,4
13/04/2021 19:16:54,13/04/2021 14:16:54,48742,5,3600546,6057983f31d70d1bd35fb9f1,Chrome 89.0.4389.114,reminder,5,SS8,20,Screen 1,response_keyboard,986.0450000269338,3,1,1,0,test_trial,SS8,pred,pet store.png,1,3
13/04/2021 19:16:56,13/04/2021 14:16:55,48742,5,3600546,6057983f31d70d1bd35fb9f1,Chrome 89.0.4389.114,reminder,5,SS8,21,Screen 1,response_keyboard,580.8100000722334,2,1,1,0,test_trial,SS8,pred,pet store.png,2,2
13/04/2021 19:16:57,13/04/2021 14:16:56,48742,5,3600546,6057983f31d70d1bd35fb9f1,Chrome 89.0.4389.114,reminder,5,SS8,22,Screen 1,response_keyboard,539.820000063628,4,1,1,0,test_trial,SS8,pred,pet store.png,3,4
13/04/2021 19:16:58,13/04/2021 14:16:57,48742,5,3600546,6057983f31d70d1bd35fb9f1,Chrome 89.0.4389.114,reminder,5,SS8,23,Screen 1,response_keyboard,466.71000006608665,2,1,1,0,test_trial,SS8,pred,pet store.png,4,2
13/04/2021 19:16:59,13/04/2021 14:16:59,48742,5,3600546,6057983f31d70d1bd35fb9f1,Chrome 89.0.4389.114,reminder,5,SS8,24,Screen 1,response_keyboard,536.6950000170618,1,1,1,0,test_trial,SS8,pred,pet store.png,5,1
13/04/2021 19:17:00,13/04/2021 14:16:59,48742,5,3600546,6057983f31d70d1bd35fb9f1,Chrome 89.0.4389.114,reminder,5,SS8,25,Screen 1,response_keyboard,408.6200000019744,4,1,1,0,test_trial,SS8,pred,pet store.png,6,4
13/04/2021 19:17:05,13/04/2021 14:17:05,48742,5,3600546,6057983f31d70d1bd35fb9f1,Chrome 89.0.4389.114,reminder,5,SS8,28,Screen 1,response_keyboard,1069.6300000417978,3,1,1,0,test_trial,SS8,pred,pet store.png,1,3
13/04/2021 19:17:06,13/04/2021 14:17:06,48742,5,3600546,6057983f31d70d1bd35fb9f1,Chrome 89.0.4389.114,reminder,5,SS8,29,Screen 1,response_keyboard,463.5250000283122,2,1,1,0,test_trial,SS8,pred,pet store.png,2,2
13/04/2021 19:17:07,13/04/2021 14:17:07,48742,5,3600546,6057983f31d70d1bd35fb9f1,Chrome 89.0.4389.114,reminder,5,SS8,30,Screen 1,response_keyboard,443.45000002067536,4,1,1,0,test_trial,SS8,pred,pet store.png,3,4
13/04/2021 19:17:08,13/04/2021 14:17:08,48742,5,3600546,6057983f31d70d1bd35fb9f1,Chrome 89.0.4389.114,reminder,5,SS8,31,Screen 1,response_keyboard,364.62999996729195,2,1,1,0,test_trial,SS8,pred,pet store.png,4,2
13/04/2021 19:17:09,13/04/2021 14:17:09,48742,5,3600546,6057983f31d70d1bd35fb9f1,Chrome 89.0.4389.114,reminder,5,SS8,32,Screen 1,response_keyboard,378.3400000538677,1,1,1,0,test_trial,SS8,pred,pet store.png,5,1
13/04/2021 19:17:10,13/04/2021 14:17:10,48742,5,3600546,6057983f31d70d1bd35fb9f1,Chrome 89.0.4389.114,reminder,5,SS8,33,Screen 1,response_keyboard,344.35000002849847,4,1,1,0,test_trial,SS8,pred,pet store.png,6,4
13/04/2021 19:20:03,13/04/2021 15:20:03,48742,5,3600503,5c0990b854deae0001ac693c,Chrome 89.0.4389.114,reminder,5,SS7,20,Screen 1,response_keyboard,1225.9750000666827,3,1,1,0,test_trial,SS7,pred,grocery store.png,1,3
13/04/2021 19:20:04,13/04/2021 15:20:04,48742,5,3600503,5c0990b854deae0001ac693c,Chrome 89.0.4389.114,reminder,5,SS7,21,Screen 1,response_keyboard,285.4049999732524,2,1,1,0,test_trial,SS7,pred,grocery store.png,2,2
13/04/2021 19:20:05,13/04/2021 15:20:04,48742,5,3600503,5c0990b854deae0001ac693c,Chrome 89.0.4389.114,reminder,5,SS7,22,Screen 1,response_keyboard,10.314999963156879,4,1,1,0,test_trial,SS7,pred,grocery store.png,3,4
13/04/2021 19:20:06,13/04/2021 15:20:06,48742,5,3600503,5c0990b854deae0001ac693c,Chrome 89.0.4389.114,reminder,5,SS7,23,Screen 1,response_keyboard,962.6350000035018,2,1,1,0,test_trial,SS7,pred,grocery store.png,4,2
13/04/2021 19:20:07,13/04/2021 15:20:07,48742,5,3600503,5c0990b854deae0001ac693c,Chrome 89.0.4389.114,reminder,5,SS7,24,Screen 1,response_keyboard,360.51000002771616,1,1,1,0,test_trial,SS7,pred,grocery store.png,5,1
13/04/2021 19:20:08,13/04/2021 15:20:07,48742,5,3600503,5c0990b854deae0001ac693c,Chrome 89.0.4389.114,reminder,5,SS7,25,Screen 1,response_keyboard,3.074999898672104,4,1,1,0,test_trial,SS7,pred,grocery store.png,6,4
13/04/2021 19:20:13,13/04/2021 15:20:13,48742,5,3600503,5c0990b854deae0001ac693c,Chrome 89.0.4389.114,reminder,5,SS7,28,Screen 1,response_keyboard,1061.7599999532104,3,1,1,0,test_trial,SS7,pred,grocery store.png,1,3
13/04/2021 19:20:14,13/04/2021 15:20:13,48742,5,3600503,5c0990b854deae0001ac693c,Chrome 89.0.4389.114,reminder,5,SS7,29,Screen 1,response_keyboard,34.14500004146248,2,1,1,0,test_trial,SS7,pred,grocery store.png,2,2
13/04/2021 19:20:15,13/04/2021 15:20:14,48742,5,3600503,5c0990b854deae0001ac693c,Chrome 89.0.4389.114,reminder,5,SS7,30,Screen 1,response_keyboard,105.67499999888241,4,1,1,0,test_trial,SS7,pred,grocery store.png,3,4
13/04/2021 19:20:16,13/04/2021 15:20:15,48742,5,3600503,5c0990b854deae0001ac693c,Chrome 89.0.4389.114,reminder,5,SS7,31,Screen 1,response_keyboard,592.160000000149,2,1,1,0,test_trial,SS7,pred,grocery store.png,4,2
13/04/2021 19:20:16,13/04/2021 15:20:16,48742,5,3600503,5c0990b854deae0001ac693c,Chrome 89.0.4389.114,reminder,5,SS7,32,Screen 1,response_keyboard,97.15499996673316,1,1,1,0,test_trial,SS7,pred,grocery store.png,5,1
13/04/2021 19:20:17,13/04/2021 15:20:17,48742,5,3600503,5c0990b854deae0001ac693c,Chrome 89.0.4389.114,reminder,5,SS7,33,Screen 1,response_keyboard,101.35999997146428,4,1,1,0,test_trial,SS7,pred,grocery store.png,6,4
13/04/2021 19:25:27,13/04/2021 15:25:27,48742,5,3600543,5e63e793e50a6316a75213c4,Chrome 89.0.4389.114,reminder,5,SS1,20,Screen 1,response_keyboard,589.159999974072,1,1,1,0,test_trial,SS1,pred,grocery store.png,1,1
13/04/2021 19:25:28,13/04/2021 15:25:28,48742,5,3600543,5e63e793e50a6316a75213c4,Chrome 89.0.4389.114,reminder,5,SS1,21,Screen 1,response_keyboard,395.03499981947243,4,1,1,0,test_trial,SS1,pred,grocery store.png,2,4
13/04/2021 19:25:29,13/04/2021 15:25:28,48742,5,3600543,5e63e793e50a6316a75213c4,Chrome 89.0.4389.114,reminder,5,SS1,22,Screen 1,response_keyboard,185.33999985083938,3,1,1,0,test_trial,SS1,pred,grocery store.png,3,3
13/04/2021 19:25:29,13/04/2021 15:25:29,48742,5,3600543,5e63e793e50a6316a75213c4,Chrome 89.0.4389.114,reminder,5,SS1,23,Screen 1,response_keyboard,227.08499990403652,4,1,1,0,test_trial,SS1,pred,grocery store.png,4,4
13/04/2021 19:25:33,13/04/2021 15:25:33,48742,5,3600543,5e63e793e50a6316a75213c4,Chrome 89.0.4389.114,reminder,5,SS1,24,Screen 1,response_keyboard,3363.4349999483675,2,1,1,0,test_trial,SS1,pred,grocery store.png,5,2
13/04/2021 19:25:34,13/04/2021 15:25:34,48742,5,3600543,5e63e793e50a6316a75213c4,Chrome 89.0.4389.114,reminder,5,SS1,25,Screen 1,response_keyboard,357.60500002652407,3,1,1,0,test_trial,SS1,pred,grocery store.png,6,3
13/04/2021 19:25:39,13/04/2021 15:25:39,48742,5,3600543,5e63e793e50a6316a75213c4,Chrome 89.0.4389.114,reminder,5,SS1,28,Screen 1,response_keyboard,498.8049999810755,1,1,1,0,test_trial,SS1,pred,grocery store.png,1,1
13/04/2021 19:25:40,13/04/2021 15:25:40,48742,5,3600543,5e63e793e50a6316a75213c4,Chrome 89.0.4389.114,reminder,5,SS1,29,Screen 1,response_keyboard,253.45499999821186,4,1,1,0,test_trial,SS1,pred,grocery store.png,2,4
13/04/2021 19:25:41,13/04/2021 15:25:41,48742,5,3600543,5e63e793e50a6316a75213c4,Chrome 89.0.4389.114,reminder,5,SS1,30,Screen 1,response_keyboard,210.0550001487136,3,1,1,0,test_trial,SS1,pred,grocery store.png,3,3
13/04/2021 19:25:41,13/04/2021 15:25:41,48742,5,3600543,5e63e793e50a6316a75213c4,Chrome 89.0.4389.114,reminder,5,SS1,31,Screen 1,response_keyboard,207.73499994538724,4,1,1,0,test_trial,SS1,pred,grocery store.png,4,4
13/04/2021 19:25:42,13/04/2021 15:25:42,48742,5,3600543,5e63e793e50a6316a75213c4,Chrome 89.0.4389.114,reminder,5,SS1,32,Screen 1,response_keyboard,230.94499995931983,2,1,1,0,test_trial,SS1,pred,grocery store.png,5,2
13/04/2021 19:25:43,13/04/2021 15:25:43,48742,5,3600543,5e63e793e50a6316a75213c4,Chrome 89.0.4389.114,reminder,5,SS1,33,Screen 1,response_keyboard,183.02499991841614,3,1,1,0,test_trial,SS1,pred,grocery store.png,6,3
13/04/2021 21:07:25,13/04/2021 17:07:24,48742,5,3601240,5e274886bcb84f052bf6858f,Chrome 88.0.4324.182,reminder,5,SS6,20,Screen 1,response_keyboard,1353.9250000030734,1,1,1,0,test_trial,SS6,pred,pet store.png,1,1
13/04/2021 21:07:25,13/04/2021 17:07:25,48742,5,3601240,5e274886bcb84f052bf6858f,Chrome 88.0.4324.182,reminder,5,SS6,21,Screen 1,response_keyboard,414.954999985639,4,1,1,0,test_trial,SS6,pred,pet store.png,2,4
13/04/2021 21:07:26,13/04/2021 17:07:26,48742,5,3601240,5e274886bcb84f052bf6858f,Chrome 88.0.4324.182,reminder,5,SS6,22,Screen 1,response_keyboard,355.5449999985285,3,1,1,0,test_trial,SS6,pred,pet store.png,3,3
13/04/2021 21:07:27,13/04/2021 17:07:27,48742,5,3601240,5e274886bcb84f052bf6858f,Chrome 88.0.4324.182,reminder,5,SS6,23,Screen 1,response_keyboard,355.0299999769777,4,1,1,0,test_trial,SS6,pred,pet store.png,4,4
13/04/2021 21:07:28,13/04/2021 17:07:28,48742,5,3601240,5e274886bcb84f052bf6858f,Chrome 88.0.4324.182,reminder,5,SS6,24,Screen 1,response_keyboard,251.25000003026798,2,1,1,0,test_trial,SS6,pred,pet store.png,5,2
13/04/2021 21:07:29,13/04/2021 17:07:29,48742,5,3601240,5e274886bcb84f052bf6858f,Chrome 88.0.4324.182,reminder,5,SS6,25,Screen 1,response_keyboard,248.47499997122213,3,1,1,0,test_trial,SS6,pred,pet store.png,6,3
13/04/2021 21:07:34,13/04/2021 17:07:34,48742,5,3601240,5e274886bcb84f052bf6858f,Chrome 88.0.4324.182,reminder,5,SS6,28,Screen 1,response_keyboard,560.5349999968894,1,1,1,0,test_trial,SS6,pred,pet store.png,1,1
13/04/2021 21:07:35,13/04/2021 17:07:35,48742,5,3601240,5e274886bcb84f052bf6858f,Chrome 88.0.4324.182,reminder,5,SS6,29,Screen 1,response_keyboard,251.47000001743436,4,1,1,0,test_trial,SS6,pred,pet store.png,2,4
13/04/2021 21:07:36,13/04/2021 17:07:36,48742,5,3601240,5e274886bcb84f052bf6858f,Chrome 88.0.4324.182,reminder,5,SS6,30,Screen 1,response_keyboard,572.7049999986775,3,1,1,0,test_trial,SS6,pred,pet store.png,3,3
13/04/2021 21:07:37,13/04/2021 17:07:37,48742,5,3601240,5e274886bcb84f052bf6858f,Chrome 88.0.4324.182,reminder,5,SS6,31,Screen 1,response_keyboard,240.66499999025837,4,1,1,0,test_trial,SS6,pred,pet store.png,4,4
13/04/2021 21:07:38,13/04/2021 17:07:37,48742,5,3601240,5e274886bcb84f052bf6858f,Chrome 88.0.4324.182,reminder,5,SS6,32,Screen 1,response_keyboard,302.2099999943748,2,1,1,0,test_trial,SS6,pred,pet store.png,5,2
13/04/2021 21:07:38,13/04/2021 17:07:38,48742,5,3601240,5e274886bcb84f052bf6858f,Chrome 88.0.4324.182,reminder,5,SS6,33,Screen 1,response_keyboard,306.34499998996034,3,1,1,0,test_trial,SS6,pred,pet store.png,6,3
13/04/2021 21:07:55,13/04/2021 14:07:52,48742,5,3601257,5fdfed60fdb6e68d1e94cdd2,Chrome 89.0.4389.114,reminder,5,SS4,20,Screen 1,response_keyboard,626.1849999427795,3,1,1,0,test_trial,SS4,pred,pet store.png,1,3
13/04/2021 21:07:57,13/04/2021 14:07:53,48742,5,3601257,5fdfed60fdb6e68d1e94cdd2,Chrome 89.0.4389.114,reminder,5,SS4,21,Screen 1,response_keyboard,325.8650000207126,2,1,1,0,test_trial,SS4,pred,pet store.png,2,2
13/04/2021 21:07:57,13/04/2021 14:07:54,48742,5,3601257,5fdfed60fdb6e68d1e94cdd2,Chrome 89.0.4389.114,reminder,5,SS4,22,Screen 1,response_keyboard,241.61499994806945,4,1,1,0,test_trial,SS4,pred,pet store.png,3,4
13/04/2021 21:07:58,13/04/2021 14:07:54,48742,5,3601257,5fdfed60fdb6e68d1e94cdd2,Chrome 89.0.4389.114,reminder,5,SS4,23,Screen 1,response_keyboard,228.0000001192093,2,1,1,0,test_trial,SS4,pred,pet store.png,4,2
13/04/2021 21:07:59,13/04/2021 14:07:55,48742,5,3601257,5fdfed60fdb6e68d1e94cdd2,Chrome 89.0.4389.114,reminder,5,SS4,24,Screen 1,response_keyboard,348.66000013425946,1,1,1,0,test_trial,SS4,pred,pet store.png,5,1
13/04/2021 21:08:00,13/04/2021 14:07:56,48742,5,3601257,5fdfed60fdb6e68d1e94cdd2,Chrome 89.0.4389.114,reminder,5,SS4,25,Screen 1,response_keyboard,179.9550000578165,4,1,1,0,test_trial,SS4,pred,pet store.png,6,4
13/04/2021 21:08:05,13/04/2021 14:08:01,48742,5,3601257,5fdfed60fdb6e68d1e94cdd2,Chrome 89.0.4389.114,reminder,5,SS4,28,Screen 1,response_keyboard,519.7950000874698,3,1,1,0,test_trial,SS4,pred,pet store.png,1,3
13/04/2021 21:08:06,13/04/2021 14:08:02,48742,5,3601257,5fdfed60fdb6e68d1e94cdd2,Chrome 89.0.4389.114,reminder,5,SS4,29,Screen 1,response_keyboard,162.1600000653416,2,1,1,0,test_trial,SS4,pred,pet store.png,2,2
13/04/2021 21:08:07,13/04/2021 14:08:03,48742,5,3601257,5fdfed60fdb6e68d1e94cdd2,Chrome 89.0.4389.114,reminder,5,SS4,30,Screen 1,response_keyboard,156.67499997653067,4,1,1,0,test_trial,SS4,pred,pet store.png,3,4
13/04/2021 21:08:07,13/04/2021 14:08:04,48742,5,3601257,5fdfed60fdb6e68d1e94cdd2,Chrome 89.0.4389.114,reminder,5,SS4,31,Screen 1,response_keyboard,216.7899999767542,2,1,1,0,test_trial,SS4,pred,pet store.png,4,2
13/04/2021 21:08:08,13/04/2021 14:08:05,48742,5,3601257,5fdfed60fdb6e68d1e94cdd2,Chrome 89.0.4389.114,reminder,5,SS4,32,Screen 1,response_keyboard,221.00499994121492,1,1,1,0,test_trial,SS4,pred,pet store.png,5,1
13/04/2021 21:08:09,13/04/2021 14:08:05,48742,5,3601257,5fdfed60fdb6e68d1e94cdd2,Chrome 89.0.4389.114,reminder,5,SS4,33,Screen 1,response_keyboard,180.33499992452562,4,1,1,0,test_trial,SS4,pred,pet store.png,6,4
13/04/2021 21:09:49,13/04/2021 16:09:48,48742,5,3601242,5f4f12010c816616c12ab29d,Chrome 89.0.4389.114,reminder,5,SS2,20,Screen 1,response_keyboard,3322.954999981448,1,1,1,0,test_trial,SS2,pred,pet store.png,1,1
13/04/2021 21:09:52,13/04/2021 16:09:52,48742,5,3601242,5f4f12010c816616c12ab29d,Chrome 89.0.4389.114,reminder,5,SS2,21,Screen 1,response_keyboard,2825.819999910891,4,1,1,0,test_trial,SS2,pred,pet store.png,2,4
13/04/2021 21:09:53,13/04/2021 16:09:53,48742,5,3601242,5f4f12010c816616c12ab29d,Chrome 89.0.4389.114,reminder,5,SS2,22,Screen 1,response_keyboard,817.7650000434369,3,1,1,0,test_trial,SS2,pred,pet store.png,3,3
13/04/2021 21:09:55,13/04/2021 16:09:55,48742,5,3601242,5f4f12010c816616c12ab29d,Chrome 89.0.4389.114,reminder,5,SS2,23,Screen 1,response_keyboard,1172.6499998476356,4,1,1,0,test_trial,SS2,pred,pet store.png,4,4
13/04/2021 21:09:56,13/04/2021 16:09:56,48742,5,3601242,5f4f12010c816616c12ab29d,Chrome 89.0.4389.114,reminder,5,SS2,24,Screen 1,response_keyboard,539.9800001177937,2,1,1,0,test_trial,SS2,pred,pet store.png,5,2
13/04/2021 21:09:57,13/04/2021 16:09:57,48742,5,3601242,5f4f12010c816616c12ab29d,Chrome 89.0.4389.114,reminder,5,SS2,25,Screen 1,response_keyboard,579.0649999398738,3,1,1,0,test_trial,SS2,pred,pet store.png,6,3
13/04/2021 21:10:03,13/04/2021 16:10:03,48742,5,3601242,5f4f12010c816616c12ab29d,Chrome 89.0.4389.114,reminder,5,SS2,28,Screen 1,response_keyboard,1252.254999941215,1,1,1,0,test_trial,SS2,pred,pet store.png,1,1
13/04/2021 21:10:04,13/04/2021 16:10:04,48742,5,3601242,5f4f12010c816616c12ab29d,Chrome 89.0.4389.114,reminder,5,SS2,29,Screen 1,response_keyboard,307.10499989800155,4,1,1,0,test_trial,SS2,pred,pet store.png,2,4
13/04/2021 21:10:05,13/04/2021 16:10:05,48742,5,3601242,5f4f12010c816616c12ab29d,Chrome 89.0.4389.114,reminder,5,SS2,30,Screen 1,response_keyboard,463.505000108853,3,1,1,0,test_trial,SS2,pred,pet store.png,3,3
13/04/2021 21:10:06,13/04/2021 16:10:06,48742,5,3601242,5f4f12010c816616c12ab29d,Chrome 89.0.4389.114,reminder,5,SS2,31,Screen 1,response_keyboard,410.0599999073893,4,1,1,0,test_trial,SS2,pred,pet store.png,4,4
13/04/2021 21:10:07,13/04/2021 16:10:07,48742,5,3601242,5f4f12010c816616c12ab29d,Chrome 89.0.4389.114,reminder,5,SS2,32,Screen 1,response_keyboard,464.72500008530915,2,1,1,0,test_trial,SS2,pred,pet store.png,5,2
13/04/2021 21:10:08,13/04/2021 16:10:08,48742,5,3601242,5f4f12010c816616c12ab29d,Chrome 89.0.4389.114,reminder,5,SS2,33,Screen 1,response_keyboard,322.1899999771267,3,1,1,0,test_trial,SS2,pred,pet store.png,6,3
13/04/2021 21:12:07,13/04/2021 14:12:06,48742,5,3601309,5e6f2e0fa2c0564d8816c03d,Chrome 89.0.4389.114,reminder,5,SS8,20,Screen 1,response_keyboard,697.8499999968335,3,1,1,0,test_trial,SS8,pred,pet store.png,1,3
13/04/2021 21:12:08,13/04/2021 14:12:07,48742,5,3601309,5e6f2e0fa2c0564d8816c03d,Chrome 89.0.4389.114,reminder,5,SS8,21,Screen 1,response_keyboard,248.20000000181608,2,1,1,0,test_trial,SS8,pred,pet store.png,2,2
13/04/2021 21:12:09,13/04/2021 14:12:07,48742,5,3601309,5e6f2e0fa2c0564d8816c03d,Chrome 89.0.4389.114,reminder,5,SS8,22,Screen 1,response_keyboard,112.66500000783708,4,1,1,0,test_trial,SS8,pred,pet store.png,3,4
13/04/2021 21:12:09,13/04/2021 14:12:08,48742,5,3601309,5e6f2e0fa2c0564d8816c03d,Chrome 89.0.4389.114,reminder,5,SS8,23,Screen 1,response_keyboard,70.66500000655651,2,1,1,0,test_trial,SS8,pred,pet store.png,4,2
13/04/2021 21:12:10,13/04/2021 14:12:08,48742,5,3601309,5e6f2e0fa2c0564d8816c03d,Chrome 89.0.4389.114,reminder,5,SS8,24,Screen 1,response_keyboard,18.1600000069011,1,1,1,0,test_trial,SS8,pred,pet store.png,5,1
13/04/2021 21:12:11,13/04/2021 14:12:09,48742,5,3601309,5e6f2e0fa2c0564d8816c03d,Chrome 89.0.4389.114,reminder,5,SS8,25,Screen 1,response_keyboard,48.43000000983011,4,1,1,0,test_trial,SS8,pred,pet store.png,6,4
13/04/2021 21:12:16,13/04/2021 14:12:14,48742,5,3601309,5e6f2e0fa2c0564d8816c03d,Chrome 89.0.4389.114,reminder,5,SS8,28,Screen 1,response_keyboard,619.3650000059279,3,1,1,0,test_trial,SS8,pred,pet store.png,1,3
13/04/2021 21:12:17,13/04/2021 14:12:15,48742,5,3601309,5e6f2e0fa2c0564d8816c03d,Chrome 89.0.4389.114,reminder,5,SS8,29,Screen 1,response_keyboard,201.00500000989996,2,1,1,0,test_trial,SS8,pred,pet store.png,2,2
13/04/2021 21:12:17,13/04/2021 14:12:16,48742,5,3601309,5e6f2e0fa2c0564d8816c03d,Chrome 89.0.4389.114,reminder,5,SS8,30,Screen 1,response_keyboard,188.54499999724794,4,1,1,0,test_trial,SS8,pred,pet store.png,3,4
13/04/2021 21:12:18,13/04/2021 14:12:16,48742,5,3601309,5e6f2e0fa2c0564d8816c03d,Chrome 89.0.4389.114,reminder,5,SS8,31,Screen 1,response_keyboard,134.7550000064075,2,1,1,0,test_trial,SS8,pred,pet store.png,4,2
13/04/2021 21:12:19,13/04/2021 14:12:17,48742,5,3601309,5e6f2e0fa2c0564d8816c03d,Chrome 89.0.4389.114,reminder,5,SS8,32,Screen 1,response_keyboard,256.519999995362,1,1,1,0,test_trial,SS8,pred,pet store.png,5,1
13/04/2021 21:12:20,13/04/2021 14:12:18,48742,5,3601309,5e6f2e0fa2c0564d8816c03d,Chrome 89.0.4389.114,reminder,5,SS8,33,Screen 1,response_keyboard,217.1200000011595,4,1,1,0,test_trial,SS8,pred,pet store.png,6,4
13/04/2021 21:16:29,13/04/2021 14:16:29,48742,5,3601295,6021a1418a2f591e46a92aea,Chrome 89.0.4389.114,reminder,5,SS5,20,Screen 1,response_keyboard,511.15500001469627,1,1,1,0,test_trial,SS5,pred,grocery store.png,1,1
13/04/2021 21:16:30,13/04/2021 14:16:30,48742,5,3601295,6021a1418a2f591e46a92aea,Chrome 89.0.4389.114,reminder,5,SS5,21,Screen 1,response_keyboard,335.44500000425614,4,1,1,0,test_trial,SS5,pred,grocery store.png,2,4
13/04/2021 21:16:31,13/04/2021 14:16:31,48742,5,3601295,6021a1418a2f591e46a92aea,Chrome 89.0.4389.114,reminder,5,SS5,22,Screen 1,response_keyboard,140.28000002144836,3,1,1,0,test_trial,SS5,pred,grocery store.png,3,3
13/04/2021 21:16:32,13/04/2021 14:16:32,48742,5,3601295,6021a1418a2f591e46a92aea,Chrome 89.0.4389.114,reminder,5,SS5,23,Screen 1,response_keyboard,43.360000010579824,4,1,1,0,test_trial,SS5,pred,grocery store.png,4,4
13/04/2021 21:16:32,13/04/2021 14:16:33,48742,5,3601295,6021a1418a2f591e46a92aea,Chrome 89.0.4389.114,reminder,5,SS5,24,Screen 1,response_keyboard,182.59500002022833,2,1,1,0,test_trial,SS5,pred,grocery store.png,5,2
13/04/2021 21:16:33,13/04/2021 14:16:33,48742,5,3601295,6021a1418a2f591e46a92aea,Chrome 89.0.4389.114,reminder,5,SS5,25,Screen 1,response_keyboard,241.32999998982996,3,1,1,0,test_trial,SS5,pred,grocery store.png,6,3
13/04/2021 21:16:39,13/04/2021 14:16:39,48742,5,3601295,6021a1418a2f591e46a92aea,Chrome 89.0.4389.114,reminder,5,SS5,28,Screen 1,response_keyboard,566.7949999915436,1,1,1,0,test_trial,SS5,pred,grocery store.png,1,1
13/04/2021 21:16:40,13/04/2021 14:16:40,48742,5,3601295,6021a1418a2f591e46a92aea,Chrome 89.0.4389.114,reminder,5,SS5,29,Screen 1,response_keyboard,196.4099999750033,4,1,1,0,test_trial,SS5,pred,grocery store.png,2,4
13/04/2021 21:16:41,13/04/2021 14:16:41,48742,5,3601295,6021a1418a2f591e46a92aea,Chrome 89.0.4389.114,reminder,5,SS5,30,Screen 1,response_keyboard,48.525000020163134,3,1,1,0,test_trial,SS5,pred,grocery store.png,3,3
13/04/2021 21:16:41,13/04/2021 14:16:41,48742,5,3601295,6021a1418a2f591e46a92aea,Chrome 89.0.4389.114,reminder,5,SS5,31,Screen 1,response_keyboard,98.25999999884516,4,1,1,0,test_trial,SS5,pred,grocery store.png,4,4
13/04/2021 21:16:42,13/04/2021 14:16:42,48742,5,3601295,6021a1418a2f591e46a92aea,Chrome 89.0.4389.114,reminder,5,SS5,32,Screen 1,response_keyboard,6.9549999898299575,2,1,1,0,test_trial,SS5,pred,grocery store.png,5,2
13/04/2021 21:16:42,13/04/2021 14:16:43,48742,5,3601295,6021a1418a2f591e46a92aea,Chrome 89.0.4389.114,reminder,5,SS5,33,Screen 1,response_keyboard,13.834999990649521,3,1,1,0,test_trial,SS5,pred,grocery store.png,6,3
13/04/2021 21:16:34,13/04/2021 17:16:36,48742,5,3601247,5af2f93fe1b5b8000148c0c7,Edge 89.0.774.76,reminder,5,SS7,20,Screen 1,response_keyboard,550.7099999958882,3,1,1,0,test_trial,SS7,pred,grocery store.png,1,3
13/04/2021 21:16:35,13/04/2021 17:16:37,48742,5,3601247,5af2f93fe1b5b8000148c0c7,Edge 89.0.774.76,reminder,5,SS7,21,Screen 1,response_keyboard,282.33499999623746,2,1,1,0,test_trial,SS7,pred,grocery store.png,2,2
13/04/2021 21:16:35,13/04/2021 17:16:37,48742,5,3601247,5af2f93fe1b5b8000148c0c7,Edge 89.0.774.76,reminder,5,SS7,22,Screen 1,response_keyboard,275.0150000065332,4,1,1,0,test_trial,SS7,pred,grocery store.png,3,4
13/04/2021 21:16:36,13/04/2021 17:16:38,48742,5,3601247,5af2f93fe1b5b8000148c0c7,Edge 89.0.774.76,reminder,5,SS7,23,Screen 1,response_keyboard,259.07999998889863,2,1,1,0,test_trial,SS7,pred,grocery store.png,4,2
13/04/2021 21:16:37,13/04/2021 17:16:39,48742,5,3601247,5af2f93fe1b5b8000148c0c7,Edge 89.0.774.76,reminder,5,SS7,24,Screen 1,response_keyboard,207.0300000050338,1,1,1,0,test_trial,SS7,pred,grocery store.png,5,1
13/04/2021 21:16:38,13/04/2021 17:16:40,48742,5,3601247,5af2f93fe1b5b8000148c0c7,Edge 89.0.774.76,reminder,5,SS7,25,Screen 1,response_keyboard,93.34000000671949,4,1,1,0,test_trial,SS7,pred,grocery store.png,6,4
13/04/2021 21:16:43,13/04/2021 17:16:45,48742,5,3601247,5af2f93fe1b5b8000148c0c7,Edge 89.0.774.76,reminder,5,SS7,28,Screen 1,response_keyboard,570.2999999921303,3,1,1,0,test_trial,SS7,pred,grocery store.png,1,3
13/04/2021 21:16:44,13/04/2021 17:16:46,48742,5,3601247,5af2f93fe1b5b8000148c0c7,Edge 89.0.774.76,reminder,5,SS7,29,Screen 1,response_keyboard,261.979999995674,2,1,1,0,test_trial,SS7,pred,grocery store.png,2,2
13/04/2021 21:16:45,13/04/2021 17:16:46,48742,5,3601247,5af2f93fe1b5b8000148c0c7,Edge 89.0.774.76,reminder,5,SS7,30,Screen 1,response_keyboard,179.02999999932945,4,1,1,0,test_trial,SS7,pred,grocery store.png,3,4
13/04/2021 21:16:45,13/04/2021 17:16:47,48742,5,3601247,5af2f93fe1b5b8000148c0c7,Edge 89.0.774.76,reminder,5,SS7,31,Screen 1,response_keyboard,87.66499999910593,2,1,1,0,test_trial,SS7,pred,grocery store.png,4,2
13/04/2021 21:16:46,13/04/2021 17:16:48,48742,5,3601247,5af2f93fe1b5b8000148c0c7,Edge 89.0.774.76,reminder,5,SS7,32,Screen 1,response_keyboard,77.32500000565778,1,1,1,0,test_trial,SS7,pred,grocery store.png,5,1
13/04/2021 21:16:46,13/04/2021 17:16:48,48742,5,3601247,5af2f93fe1b5b8000148c0c7,Edge 89.0.774.76,reminder,5,SS7,33,Screen 1,response_keyboard,29.794999994919635,4,1,1,0,test_trial,SS7,pred,grocery store.png,6,4
13/04/2021 21:21:33,13/04/2021 16:21:33,48742,5,3601302,5f8d7ed158eb15075b28bca4,Chrome 89.0.4389.90,reminder,5,SS4,20,Screen 1,response_keyboard,2666.2900000810623,3,1,1,0,test_trial,SS4,pred,pet store.png,1,3
13/04/2021 21:21:34,13/04/2021 16:21:34,48742,5,3601302,5f8d7ed158eb15075b28bca4,Chrome 89.0.4389.90,reminder,5,SS4,21,Screen 1,response_keyboard,198.33999988622963,2,1,1,0,test_trial,SS4,pred,pet store.png,2,2
13/04/2021 21:21:35,13/04/2021 16:21:35,48742,5,3601302,5f8d7ed158eb15075b28bca4,Chrome 89.0.4389.90,reminder,5,SS4,22,Screen 1,response_keyboard,707.810000050813,4,1,1,0,test_trial,SS4,pred,pet store.png,3,4
13/04/2021 21:21:36,13/04/2021 16:21:36,48742,5,3601302,5f8d7ed158eb15075b28bca4,Chrome 89.0.4389.90,reminder,5,SS4,23,Screen 1,response_keyboard,539.0749999787658,2,1,1,0,test_trial,SS4,pred,pet store.png,4,2
13/04/2021 21:21:37,13/04/2021 16:21:36,48742,5,3601302,5f8d7ed158eb15075b28bca4,Chrome 89.0.4389.90,reminder,5,SS4,24,Screen 1,response_keyboard,22.875000024214387,1,1,1,0,test_trial,SS4,pred,pet store.png,5,1
13/04/2021 21:21:38,13/04/2021 16:21:38,48742,5,3601302,5f8d7ed158eb15075b28bca4,Chrome 89.0.4389.90,reminder,5,SS4,25,Screen 1,response_keyboard,913.084999890998,1,1,0,0,test_trial,SS4,pred,pet store.png,6,4
13/04/2021 21:21:44,13/04/2021 16:21:44,48742,5,3601302,5f8d7ed158eb15075b28bca4,Chrome 89.0.4389.90,reminder,5,SS4,28,Screen 1,response_keyboard,1725.0050001312047,3,1,1,0,test_trial,SS4,pred,pet store.png,1,3
13/04/2021 21:21:45,13/04/2021 16:21:45,48742,5,3601302,5f8d7ed158eb15075b28bca4,Chrome 89.0.4389.90,reminder,5,SS4,29,Screen 1,response_keyboard,282.8649999573827,2,1,1,0,test_trial,SS4,pred,pet store.png,2,2
13/04/2021 21:21:47,13/04/2021 16:21:47,48742,5,3601302,5f8d7ed158eb15075b28bca4,Chrome 89.0.4389.90,reminder,5,SS4,30,Screen 1,response_keyboard,1096.3800000026822,4,1,1,0,test_trial,SS4,pred,pet store.png,3,4
13/04/2021 21:21:48,13/04/2021 16:21:48,48742,5,3601302,5f8d7ed158eb15075b28bca4,Chrome 89.0.4389.90,reminder,5,SS4,31,Screen 1,response_keyboard,258.7150000035763,2,1,1,0,test_trial,SS4,pred,pet store.png,4,2
13/04/2021 21:21:49,13/04/2021 16:21:49,48742,5,3601302,5f8d7ed158eb15075b28bca4,Chrome 89.0.4389.90,reminder,5,SS4,32,Screen 1,response_keyboard,605.2349999081343,1,1,1,0,test_trial,SS4,pred,pet store.png,5,1
13/04/2021 21:21:50,13/04/2021 16:21:49,48742,5,3601302,5f8d7ed158eb15075b28bca4,Chrome 89.0.4389.90,reminder,5,SS4,33,Screen 1,response_keyboard,188.63500002771616,4,1,1,0,test_trial,SS4,pred,pet store.png,6,4
13/04/2021 21:23:31,13/04/2021 14:23:31,48742,5,3601363,5e6fe86f7245355b33d7b045,Chrome 87.0.4280.141,reminder,5,SS3,20,Screen 1,response_keyboard,763.6550001334399,3,1,1,0,test_trial,SS3,pred,grocery store.png,1,3
13/04/2021 21:23:33,13/04/2021 14:23:32,48742,5,3601363,5e6fe86f7245355b33d7b045,Chrome 87.0.4280.141,reminder,5,SS3,21,Screen 1,response_keyboard,351.9300001207739,2,1,1,0,test_trial,SS3,pred,grocery store.png,2,2
13/04/2021 21:23:34,13/04/2021 14:23:33,48742,5,3601363,5e6fe86f7245355b33d7b045,Chrome 87.0.4280.141,reminder,5,SS3,22,Screen 1,response_keyboard,291.66000010445714,4,1,1,0,test_trial,SS3,pred,grocery store.png,3,4
13/04/2021 21:23:34,13/04/2021 14:23:33,48742,5,3601363,5e6fe86f7245355b33d7b045,Chrome 87.0.4280.141,reminder,5,SS3,23,Screen 1,response_keyboard,32.05000003799796,2,1,1,0,test_trial,SS3,pred,grocery store.png,4,2
13/04/2021 21:23:34,13/04/2021 14:23:34,48742,5,3601363,5e6fe86f7245355b33d7b045,Chrome 87.0.4280.141,reminder,5,SS3,24,Screen 1,response_keyboard,101.22000006958842,1,1,1,0,test_trial,SS3,pred,grocery store.png,5,1
13/04/2021 21:23:35,13/04/2021 14:23:35,48742,5,3601363,5e6fe86f7245355b33d7b045,Chrome 87.0.4280.141,reminder,5,SS3,25,Screen 1,response_keyboard,2.804999938234687,4,1,1,0,test_trial,SS3,pred,grocery store.png,6,4
13/04/2021 21:23:40,13/04/2021 14:23:40,48742,5,3601363,5e6fe86f7245355b33d7b045,Chrome 87.0.4280.141,reminder,5,SS3,28,Screen 1,response_keyboard,615.9500000067055,3,1,1,0,test_trial,SS3,pred,grocery store.png,1,3
13/04/2021 21:23:41,13/04/2021 14:23:40,48742,5,3601363,5e6fe86f7245355b33d7b045,Chrome 87.0.4280.141,reminder,5,SS3,29,Screen 1,response_keyboard,78.46999983303249,2,1,1,0,test_trial,SS3,pred,grocery store.png,2,2
13/04/2021 21:23:42,13/04/2021 14:23:41,48742,5,3601363,5e6fe86f7245355b33d7b045,Chrome 87.0.4280.141,reminder,5,SS3,30,Screen 1,response_keyboard,138.60499998554587,4,1,1,0,test_trial,SS3,pred,grocery store.png,3,4
13/04/2021 21:23:43,13/04/2021 14:23:43,48742,5,3601363,5e6fe86f7245355b33d7b045,Chrome 87.0.4280.141,reminder,5,SS3,31,Screen 1,response_keyboard,1031.4500001259148,2,1,1,0,test_trial,SS3,pred,grocery store.png,4,2
13/04/2021 21:23:44,13/04/2021 14:23:44,48742,5,3601363,5e6fe86f7245355b33d7b045,Chrome 87.0.4280.141,reminder,5,SS3,32,Screen 1,response_keyboard,743.8750001601875,1,1,1,0,test_trial,SS3,pred,grocery store.png,5,1
13/04/2021 21:23:45,13/04/2021 14:23:45,48742,5,3601363,5e6fe86f7245355b33d7b045,Chrome 87.0.4280.141,reminder,5,SS3,33,Screen 1,response_keyboard,584.2749997973442,4,1,1,0,test_trial,SS3,pred,grocery store.png,6,4
13/04/2021 21:26:30,13/04/2021 17:26:31,48742,5,3601298,5ba855d47c0ebe0001272f70,Chrome 89.0.4389.114,reminder,5,SS1,20,Screen 1,response_keyboard,496.7899999974179,1,1,1,0,test_trial,SS1,pred,grocery store.png,1,1
13/04/2021 21:26:31,13/04/2021 17:26:32,48742,5,3601298,5ba855d47c0ebe0001272f70,Chrome 89.0.4389.114,reminder,5,SS1,21,Screen 1,response_keyboard,203.8250000005064,4,1,1,0,test_trial,SS1,pred,grocery store.png,2,4
13/04/2021 21:26:32,13/04/2021 17:26:33,48742,5,3601298,5ba855d47c0ebe0001272f70,Chrome 89.0.4389.114,reminder,5,SS1,22,Screen 1,response_keyboard,203.10500000050524,3,1,1,0,test_trial,SS1,pred,grocery store.png,3,3
13/04/2021 21:26:33,13/04/2021 17:26:33,48742,5,3601298,5ba855d47c0ebe0001272f70,Chrome 89.0.4389.114,reminder,5,SS1,23,Screen 1,response_keyboard,182.94999999852735,4,1,1,0,test_trial,SS1,pred,grocery store.png,4,4
13/04/2021 21:26:34,13/04/2021 17:26:34,48742,5,3601298,5ba855d47c0ebe0001272f70,Chrome 89.0.4389.114,reminder,5,SS1,24,Screen 1,response_keyboard,169.42000000199187,2,1,1,0,test_trial,SS1,pred,grocery store.png,5,2
13/04/2021 21:26:34,13/04/2021 17:26:35,48742,5,3601298,5ba855d47c0ebe0001272f70,Chrome 89.0.4389.114,reminder,5,SS1,25,Screen 1,response_keyboard,90.66999999777181,3,1,1,0,test_trial,SS1,pred,grocery store.png,6,3
13/04/2021 21:26:40,13/04/2021 17:26:40,48742,5,3601298,5ba855d47c0ebe0001272f70,Chrome 89.0.4389.114,reminder,5,SS1,28,Screen 1,response_keyboard,404.68999999939115,1,1,1,0,test_trial,SS1,pred,grocery store.png,1,1
13/04/2021 21:26:41,13/04/2021 17:26:41,48742,5,3601298,5ba855d47c0ebe0001272f70,Chrome 89.0.4389.114,reminder,5,SS1,29,Screen 1,response_keyboard,539.054999997461,4,1,1,0,test_trial,SS1,pred,grocery store.png,2,4
13/04/2021 21:26:42,13/04/2021 17:26:42,48742,5,3601298,5ba855d47c0ebe0001272f70,Chrome 89.0.4389.114,reminder,5,SS1,30,Screen 1,response_keyboard,192.30999999854248,3,1,1,0,test_trial,SS1,pred,grocery store.png,3,3
13/04/2021 21:26:42,13/04/2021 17:26:43,48742,5,3601298,5ba855d47c0ebe0001272f70,Chrome 89.0.4389.114,reminder,5,SS1,31,Screen 1,response_keyboard,165.77500000130385,4,1,1,0,test_trial,SS1,pred,grocery store.png,4,4
13/04/2021 21:26:43,13/04/2021 17:26:44,48742,5,3601298,5ba855d47c0ebe0001272f70,Chrome 89.0.4389.114,reminder,5,SS1,32,Screen 1,response_keyboard,183.17999999999302,2,1,1,0,test_trial,SS1,pred,grocery store.png,5,2
13/04/2021 21:26:44,13/04/2021 17:26:44,48742,5,3601298,5ba855d47c0ebe0001272f70,Chrome 89.0.4389.114,reminder,5,SS1,33,Screen 1,response_keyboard,65.95000000015716,3,1,1,0,test_trial,SS1,pred,grocery store.png,6,3
13/04/2021 21:44:15,13/04/2021 17:44:15,48742,5,3601437,5f6c102b6ec04317fc9a8127,Chrome 89.0.4389.114,reminder,5,SS1,20,Screen 1,response_keyboard,323.3650000183843,1,1,1,0,test_trial,SS1,pred,grocery store.png,1,1
13/04/2021 21:44:16,13/04/2021 17:44:15,48742,5,3601437,5f6c102b6ec04317fc9a8127,Chrome 89.0.4389.114,reminder,5,SS1,21,Screen 1,response_keyboard,228.5050000064075,4,1,1,0,test_trial,SS1,pred,grocery store.png,2,4
13/04/2021 21:44:17,13/04/2021 17:44:16,48742,5,3601437,5f6c102b6ec04317fc9a8127,Chrome 89.0.4389.114,reminder,5,SS1,22,Screen 1,response_keyboard,160.02000001026317,3,1,1,0,test_trial,SS1,pred,grocery store.png,3,3
13/04/2021 21:44:17,13/04/2021 17:44:17,48742,5,3601437,5f6c102b6ec04317fc9a8127,Chrome 89.0.4389.114,reminder,5,SS1,23,Screen 1,response_keyboard,176.72499996842816,4,1,1,0,test_trial,SS1,pred,grocery store.png,4,4
13/04/2021 21:44:18,13/04/2021 17:44:17,48742,5,3601437,5f6c102b6ec04317fc9a8127,Chrome 89.0.4389.114,reminder,5,SS1,24,Screen 1,response_keyboard,115.90000003343448,2,1,1,0,test_trial,SS1,pred,grocery store.png,5,2
13/04/2021 21:44:18,13/04/2021 17:44:18,48742,5,3601437,5f6c102b6ec04317fc9a8127,Chrome 89.0.4389.114,reminder,5,SS1,25,Screen 1,response_keyboard,108.07000001659617,3,1,1,0,test_trial,SS1,pred,grocery store.png,6,3
13/04/2021 21:44:23,13/04/2021 17:44:23,48742,5,3601437,5f6c102b6ec04317fc9a8127,Chrome 89.0.4389.114,reminder,5,SS1,28,Screen 1,response_keyboard,266.89500000793487,1,1,1,0,test_trial,SS1,pred,grocery store.png,1,1
13/04/2021 21:44:24,13/04/2021 17:44:24,48742,5,3601437,5f6c102b6ec04317fc9a8127,Chrome 89.0.4389.114,reminder,5,SS1,29,Screen 1,response_keyboard,150.02499998081475,4,1,1,0,test_trial,SS1,pred,grocery store.png,2,4
13/04/2021 21:44:25,13/04/2021 17:44:24,48742,5,3601437,5f6c102b6ec04317fc9a8127,Chrome 89.0.4389.114,reminder,5,SS1,30,Screen 1,response_keyboard,75.88000001851469,3,1,1,0,test_trial,SS1,pred,grocery store.png,3,3
13/04/2021 21:44:25,13/04/2021 17:44:25,48742,5,3601437,5f6c102b6ec04317fc9a8127,Chrome 89.0.4389.114,reminder,5,SS1,31,Screen 1,response_keyboard,89.15999997407198,4,1,1,0,test_trial,SS1,pred,grocery store.png,4,4
13/04/2021 21:44:26,13/04/2021 17:44:25,48742,5,3601437,5f6c102b6ec04317fc9a8127,Chrome 89.0.4389.114,reminder,5,SS1,32,Screen 1,response_keyboard,64.82000002870336,2,1,1,0,test_trial,SS1,pred,grocery store.png,5,2
13/04/2021 21:44:27,13/04/2021 17:44:26,48742,5,3601437,5f6c102b6ec04317fc9a8127,Chrome 89.0.4389.114,reminder,5,SS1,33,Screen 1,response_keyboard,320.85499999811873,3,1,1,0,test_trial,SS1,pred,grocery store.png,6,3
13/04/2021 22:30:17,13/04/2021 15:30:16,48742,5,3601565,5e3f5ee91d15101c5251d8b1,Chrome 89.0.4389.114,reminder,5,SS8,20,Screen 1,response_keyboard,2038.3899999997084,3,1,1,0,test_trial,SS8,pred,pet store.png,1,3
13/04/2021 22:30:18,13/04/2021 15:30:17,48742,5,3601565,5e3f5ee91d15101c5251d8b1,Chrome 89.0.4389.114,reminder,5,SS8,21,Screen 1,response_keyboard,284.6850000005361,2,1,1,0,test_trial,SS8,pred,pet store.png,2,2
13/04/2021 22:30:18,13/04/2021 15:30:18,48742,5,3601565,5e3f5ee91d15101c5251d8b1,Chrome 89.0.4389.114,reminder,5,SS8,22,Screen 1,response_keyboard,284.9150000001828,4,1,1,0,test_trial,SS8,pred,pet store.png,3,4
13/04/2021 22:30:19,13/04/2021 15:30:19,48742,5,3601565,5e3f5ee91d15101c5251d8b1,Chrome 89.0.4389.114,reminder,5,SS8,23,Screen 1,response_keyboard,226.2350000000879,2,1,1,0,test_trial,SS8,pred,pet store.png,4,2
13/04/2021 22:30:20,13/04/2021 15:30:19,48742,5,3601565,5e3f5ee91d15101c5251d8b1,Chrome 89.0.4389.114,reminder,5,SS8,24,Screen 1,response_keyboard,170.17500000110886,1,1,1,0,test_trial,SS8,pred,pet store.png,5,1
13/04/2021 22:30:21,13/04/2021 15:30:20,48742,5,3601565,5e3f5ee91d15101c5251d8b1,Chrome 89.0.4389.114,reminder,5,SS8,25,Screen 1,response_keyboard,557.5599999992846,4,1,1,0,test_trial,SS8,pred,pet store.png,6,4
13/04/2021 22:30:28,13/04/2021 15:30:27,48742,5,3601565,5e3f5ee91d15101c5251d8b1,Chrome 89.0.4389.114,reminder,5,SS8,28,Screen 1,response_keyboard,1784.4499999991967,3,1,1,0,test_trial,SS8,pred,pet store.png,1,3
13/04/2021 22:30:29,13/04/2021 15:30:28,48742,5,3601565,5e3f5ee91d15101c5251d8b1,Chrome 89.0.4389.114,reminder,5,SS8,29,Screen 1,response_keyboard,81.49000000048545,2,1,1,0,test_trial,SS8,pred,pet store.png,2,2
13/04/2021 22:30:32,13/04/2021 15:30:32,48742,5,3601565,5e3f5ee91d15101c5251d8b1,Chrome 89.0.4389.114,reminder,5,SS8,30,Screen 1,response_keyboard,3433.9300000010553,4,1,1,0,test_trial,SS8,pred,pet store.png,3,4
13/04/2021 22:30:34,13/04/2021 15:30:34,48742,5,3601565,5e3f5ee91d15101c5251d8b1,Chrome 89.0.4389.114,reminder,5,SS8,31,Screen 1,response_keyboard,1386.850000000777,2,1,1,0,test_trial,SS8,pred,pet store.png,4,2
13/04/2021 22:30:36,13/04/2021 15:30:35,48742,5,3601565,5e3f5ee91d15101c5251d8b1,Chrome 89.0.4389.114,reminder,5,SS8,32,Screen 1,response_keyboard,311.2700000001496,1,1,1,0,test_trial,SS8,pred,pet store.png,5,1
13/04/2021 22:30:36,13/04/2021 15:30:36,48742,5,3601565,5e3f5ee91d15101c5251d8b1,Chrome 89.0.4389.114,reminder,5,SS8,33,Screen 1,response_keyboard,338.35999999973865,4,1,1,0,test_trial,SS8,pred,pet store.png,6,4
13/04/2021 23:46:12,13/04/2021 18:46:12,48742,5,3601810,5a1f24609b760100013a8c1b,Chrome 89.0.4389.114,reminder,5,SS6,20,Screen 1,response_keyboard,1425.1649999996516,1,1,1,0,test_trial,SS6,pred,pet store.png,1,1
13/04/2021 23:46:13,13/04/2021 18:46:13,48742,5,3601810,5a1f24609b760100013a8c1b,Chrome 89.0.4389.114,reminder,5,SS6,21,Screen 1,response_keyboard,479.9250000005486,4,1,1,0,test_trial,SS6,pred,pet store.png,2,4
13/04/2021 23:46:14,13/04/2021 18:46:14,48742,5,3601810,5a1f24609b760100013a8c1b,Chrome 89.0.4389.114,reminder,5,SS6,22,Screen 1,response_keyboard,373.9099999993414,3,1,1,0,test_trial,SS6,pred,pet store.png,3,3
13/04/2021 23:46:15,13/04/2021 18:46:15,48742,5,3601810,5a1f24609b760100013a8c1b,Chrome 89.0.4389.114,reminder,5,SS6,23,Screen 1,response_keyboard,312.31000000025233,4,1,1,0,test_trial,SS6,pred,pet store.png,4,4
