"utc_date","local_date","exp_id","exp_ver","id","prolific_id","browser","task","task_ver","gorilla_counterbalance","trial_row","screen_name","zone_type","rt","response","attempt","accuracy","dishonest","display","counterbalance_order","list","event","condition","event_name","seq_pos","spatial_pos","recon_correct"
"09/02/2021 22:42:01","09/02/2021 17:41:59",40999,4,3008809,"5ec771e68288e91bf1919096","Firefox 85.0","final_recon",3,"SS3",4,"Screen 1","response_button_image",6731,"rice.png",1,1,0,"recon_trial","SS3",1,3,"pred","grocery store.png",1,3,"rice.png"
"09/02/2021 22:42:05","09/02/2021 17:42:04",40999,4,3008809,"5ec771e68288e91bf1919096","Firefox 85.0","final_recon",3,"SS3",5,"Screen 1","response_button_image",4294,"coconut.png",1,1,0,"recon_trial","SS3",1,3,"pred","grocery store.png",2,2,"coconut.png"
"09/02/2021 22:42:07","09/02/2021 17:42:05",40999,4,3008809,"5ec771e68288e91bf1919096","Firefox 85.0","final_recon",3,"SS3",6,"Screen 1","response_button_image",1695,"granola.png",1,1,0,"recon_trial","SS3",1,3,"pred","grocery store.png",3,4,"granola.png"
"09/02/2021 22:42:09","09/02/2021 17:42:07",40999,4,3008809,"5ec771e68288e91bf1919096","Firefox 85.0","final_recon",3,"SS3",7,"Screen 1","response_button_image",1579,"pancakes.png",1,0,0,"recon_trial","SS3",1,3,"pred","grocery store.png",4,2,"burrito.png"
"09/02/2021 22:42:10","09/02/2021 17:42:08",40999,4,3008809,"5ec771e68288e91bf1919096","Firefox 85.0","final_recon",3,"SS3",8,"Screen 1","response_button_image",1180,"burrito.png",1,0,0,"recon_trial","SS3",1,3,"pred","grocery store.png",5,1,"pancakes.png"
"09/02/2021 22:42:11","09/02/2021 17:42:09",40999,4,3008809,"5ec771e68288e91bf1919096","Firefox 85.0","final_recon",3,"SS3",9,"Screen 1","response_button_image",708,"cupnoodle.png",1,1,0,"recon_trial","SS3",1,3,"pred","grocery store.png",6,4,"cupnoodle.png"
"09/02/2021 22:42:17","09/02/2021 17:42:15",40999,4,3008809,"5ec771e68288e91bf1919096","Firefox 85.0","final_recon",3,"SS3",32,"Screen 1","response_button_image",5259,"lemon.png",1,0,0,"recon_trial","SS3",5,3,"pred","grocery store.png",1,3,"strawberries.png"
"09/02/2021 22:42:20","09/02/2021 17:42:18",40999,4,3008809,"5ec771e68288e91bf1919096","Firefox 85.0","final_recon",3,"SS3",33,"Screen 1","response_button_image",3398,"brusselsprouts.png",1,1,0,"recon_trial","SS3",5,3,"pred","grocery store.png",2,2,"brusselsprouts.png"
"09/02/2021 22:42:21","09/02/2021 17:42:19",40999,4,3008809,"5ec771e68288e91bf1919096","Firefox 85.0","final_recon",3,"SS3",34,"Screen 1","response_button_image",866,"strawberries.png",1,0,0,"recon_trial","SS3",5,3,"pred","grocery store.png",3,4,"lemon.png"
"09/02/2021 22:42:24","09/02/2021 17:42:21",40999,4,3008809,"5ec771e68288e91bf1919096","Firefox 85.0","final_recon",3,"SS3",35,"Screen 1","response_button_image",2136,"acornsquash.png",1,1,0,"recon_trial","SS3",5,3,"pred","grocery store.png",4,2,"acornsquash.png"
"09/02/2021 22:42:25","09/02/2021 17:42:23",40999,4,3008809,"5ec771e68288e91bf1919096","Firefox 85.0","final_recon",3,"SS3",36,"Screen 1","response_button_image",1232,"celery.png",1,1,0,"recon_trial","SS3",5,3,"pred","grocery store.png",5,1,"celery.png"
"09/02/2021 22:42:25","09/02/2021 17:42:23",40999,4,3008809,"5ec771e68288e91bf1919096","Firefox 85.0","final_recon",3,"SS3",37,"Screen 1","response_button_image",583,"seaweed.png",1,1,0,"recon_trial","SS3",5,3,"pred","grocery store.png",6,4,"seaweed.png"
"09/02/2021 22:42:38","09/02/2021 17:42:36",40999,4,3008809,"5ec771e68288e91bf1919096","Firefox 85.0","final_recon",3,"SS3",18,"Screen 1","response_button_image",11465,"mustard.png",1,1,0,"recon_trial","SS3",3,1,"pred","grocery store.png",1,3,"mustard.png"
"09/02/2021 22:42:41","09/02/2021 17:42:39",40999,4,3008809,"5ec771e68288e91bf1919096","Firefox 85.0","final_recon",3,"SS3",19,"Screen 1","response_button_image",3201,"acaibowl.png",1,1,0,"recon_trial","SS3",3,1,"pred","grocery store.png",2,2,"acaibowl.png"
"09/02/2021 22:42:42","09/02/2021 17:42:40",40999,4,3008809,"5ec771e68288e91bf1919096","Firefox 85.0","final_recon",3,"SS3",20,"Screen 1","response_button_image",1006,"clams.png",1,1,0,"recon_trial","SS3",3,1,"pred","grocery store.png",3,4,"clams.png"
"09/02/2021 22:42:47","09/02/2021 17:42:45",40999,4,3008809,"5ec771e68288e91bf1919096","Firefox 85.0","final_recon",3,"SS3",21,"Screen 1","response_button_image",5313,"egg.png",1,1,0,"recon_trial","SS3",3,1,"pred","grocery store.png",4,2,"egg.png"
"09/02/2021 22:42:49","09/02/2021 17:42:47",40999,4,3008809,"5ec771e68288e91bf1919096","Firefox 85.0","final_recon",3,"SS3",22,"Screen 1","response_button_image",1856,"muffin.png",1,0,0,"recon_trial","SS3",3,1,"pred","grocery store.png",5,1,"soup.png"
"09/02/2021 22:42:50","09/02/2021 17:42:48",40999,4,3008809,"5ec771e68288e91bf1919096","Firefox 85.0","final_recon",3,"SS3",23,"Screen 1","response_button_image",511,"soup.png",1,0,0,"recon_trial","SS3",3,1,"pred","grocery store.png",6,4,"muffin.png"
"09/02/2021 22:42:55","09/02/2021 17:42:53",40999,4,3008809,"5ec771e68288e91bf1919096","Firefox 85.0","final_recon",3,"SS3",46,"Screen 1","response_button_image",4397,"cherries.png",1,0,0,"recon_trial","SS3",7,2,"pred","grocery store.png",1,3,"pomegranate.png"
"09/02/2021 22:42:59","09/02/2021 17:42:58",40999,4,3008809,"5ec771e68288e91bf1919096","Firefox 85.0","final_recon",3,"SS3",47,"Screen 1","response_button_image",4365,"pomegranate.png",1,0,0,"recon_trial","SS3",7,2,"pred","grocery store.png",2,2,"cherries.png"
"09/02/2021 22:43:01","09/02/2021 17:42:59",40999,4,3008809,"5ec771e68288e91bf1919096","Firefox 85.0","final_recon",3,"SS3",48,"Screen 1","response_button_image",1275,"poutine.png",1,1,0,"recon_trial","SS3",7,2,"pred","grocery store.png",3,4,"poutine.png"
"09/02/2021 22:43:05","09/02/2021 17:43:03",40999,4,3008809,"5ec771e68288e91bf1919096","Firefox 85.0","final_recon",3,"SS3",49,"Screen 1","response_button_image",3806,"beet.png",1,0,0,"recon_trial","SS3",7,2,"pred","grocery store.png",4,2,"salad.png"
"09/02/2021 22:43:07","09/02/2021 17:43:05",40999,4,3008809,"5ec771e68288e91bf1919096","Firefox 85.0","final_recon",3,"SS3",50,"Screen 1","response_button_image",2094,"salad.png",1,0,0,"recon_trial","SS3",7,2,"pred","grocery store.png",5,1,"pork.png"
"09/02/2021 22:43:07","09/02/2021 17:43:06",40999,4,3008809,"5ec771e68288e91bf1919096","Firefox 85.0","final_recon",3,"SS3",51,"Screen 1","response_button_image",733,"pork.png",1,0,0,"recon_trial","SS3",7,2,"pred","grocery store.png",6,4,"beet.png"
"09/02/2021 22:43:15","09/02/2021 17:43:13",40999,4,3008809,"5ec771e68288e91bf1919096","Firefox 85.0","final_recon",3,"SS3",11,"Screen 1","response_button_image",6782,"snail.png",1,1,0,"recon_trial","SS3",1,4,"rand","pet store.png",1,2,"snail.png"
"09/02/2021 22:43:20","09/02/2021 17:43:18",40999,4,3008809,"5ec771e68288e91bf1919096","Firefox 85.0","final_recon",3,"SS3",12,"Screen 1","response_button_image",4585,"hummingbird.png",1,1,0,"recon_trial","SS3",1,4,"rand","pet store.png",2,3,"hummingbird.png"
"09/02/2021 22:43:23","09/02/2021 17:43:21",40999,4,3008809,"5ec771e68288e91bf1919096","Firefox 85.0","final_recon",3,"SS3",13,"Screen 1","response_button_image",3111,"stingray.png",1,0,0,"recon_trial","SS3",1,4,"rand","pet store.png",3,1,"panda.png"
"09/02/2021 22:43:26","09/02/2021 17:43:25",40999,4,3008809,"5ec771e68288e91bf1919096","Firefox 85.0","final_recon",3,"SS3",14,"Screen 1","response_button_image",3512,"sheep.png",1,0,0,"recon_trial","SS3",1,4,"rand","pet store.png",4,3,"stingray.png"
"09/02/2021 22:43:29","09/02/2021 17:43:27",40999,4,3008809,"5ec771e68288e91bf1919096","Firefox 85.0","final_recon",3,"SS3",15,"Screen 1","response_button_image",2097,"panda.png",1,0,0,"recon_trial","SS3",1,4,"rand","pet store.png",5,4,"sheep.png"
"09/02/2021 22:43:29","09/02/2021 17:43:27",40999,4,3008809,"5ec771e68288e91bf1919096","Firefox 85.0","final_recon",3,"SS3",16,"Screen 1","response_button_image",521,"crab.png",1,1,0,"recon_trial","SS3",1,4,"rand","pet store.png",6,1,"crab.png"
"09/02/2021 22:43:38","09/02/2021 17:43:36",40999,4,3008809,"5ec771e68288e91bf1919096","Firefox 85.0","final_recon",3,"SS3",53,"Screen 1","response_button_image",8075,"donkey.png",1,0,0,"recon_trial","SS3",7,4,"rand","pet store.png",1,4,"mantis.png"
"09/02/2021 22:43:41","09/02/2021 17:43:39",40999,4,3008809,"5ec771e68288e91bf1919096","Firefox 85.0","final_recon",3,"SS3",54,"Screen 1","response_button_image",2383,"penguin.png",1,0,0,"recon_trial","SS3",7,4,"rand","pet store.png",2,3,"tiger.png"
"09/02/2021 22:43:46","09/02/2021 17:43:44",40999,4,3008809,"5ec771e68288e91bf1919096","Firefox 85.0","final_recon",3,"SS3",55,"Screen 1","response_button_image",4948,"mantis.png",1,0,0,"recon_trial","SS3",7,4,"rand","pet store.png",3,1,"donkey.png"
"09/02/2021 22:43:47","09/02/2021 17:43:45",40999,4,3008809,"5ec771e68288e91bf1919096","Firefox 85.0","final_recon",3,"SS3",56,"Screen 1","response_button_image",881,"tiger.png",1,0,0,"recon_trial","SS3",7,4,"rand","pet store.png",4,2,"goldenretriever.png"
"09/02/2021 22:43:48","09/02/2021 17:43:46",40999,4,3008809,"5ec771e68288e91bf1919096","Firefox 85.0","final_recon",3,"SS3",57,"Screen 1","response_button_image",1481,"goldenretriever.png",1,0,0,"recon_trial","SS3",7,4,"rand","pet store.png",5,1,"penguin.png"
"09/02/2021 22:43:48","09/02/2021 17:43:46",40999,4,3008809,"5ec771e68288e91bf1919096","Firefox 85.0","final_recon",3,"SS3",58,"Screen 1","response_button_image",325,"grasshopper.png",1,1,0,"recon_trial","SS3",7,4,"rand","pet store.png",6,3,"grasshopper.png"
"09/02/2021 22:44:04","09/02/2021 17:44:02",40999,4,3008809,"5ec771e68288e91bf1919096","Firefox 85.0","final_recon",3,"SS3",39,"Screen 1","timelimit_screen",14998.04,NA,NA,0,0,"recon_trial","SS3",5,1,"rand","pet store.png",1,2,"bat.png"
"09/02/2021 22:44:06","09/02/2021 17:44:04",40999,4,3008809,"5ec771e68288e91bf1919096","Firefox 85.0","final_recon",3,"SS3",40,"Screen 1","response_button_image",1774,"parrot.png",1,0,0,"recon_trial","SS3",5,1,"rand","pet store.png",2,3,"cheetah.png"
"09/02/2021 22:44:10","09/02/2021 17:44:08",40999,4,3008809,"5ec771e68288e91bf1919096","Firefox 85.0","final_recon",3,"SS3",41,"Screen 1","response_button_image",3783,"cheetah.png",1,0,0,"recon_trial","SS3",5,1,"rand","pet store.png",3,1,"chameleon.png"
"09/02/2021 22:44:13","09/02/2021 17:44:11",40999,4,3008809,"5ec771e68288e91bf1919096","Firefox 85.0","final_recon",3,"SS3",42,"Screen 1","response_button_image",2671,"chameleon.png",1,0,0,"recon_trial","SS3",5,1,"rand","pet store.png",4,4,"frog.png"
"09/02/2021 22:44:15","09/02/2021 17:44:13",40999,4,3008809,"5ec771e68288e91bf1919096","Firefox 85.0","final_recon",3,"SS3",43,"Screen 1","response_button_image",2665,"frog.png",1,0,0,"recon_trial","SS3",5,1,"rand","pet store.png",5,3,"parrot.png"
"09/02/2021 22:44:16","09/02/2021 17:44:14",40999,4,3008809,"5ec771e68288e91bf1919096","Firefox 85.0","final_recon",3,"SS3",44,"Screen 1","response_button_image",333,"pug.png",1,1,0,"recon_trial","SS3",5,1,"rand","pet store.png",6,4,"pug.png"
"09/02/2021 22:44:25","09/02/2021 17:44:23",40999,4,3008809,"5ec771e68288e91bf1919096","Firefox 85.0","final_recon",3,"SS3",25,"Screen 1","response_button_image",8618,"dolphin.png",1,1,0,"recon_trial","SS3",3,3,"rand","pet store.png",1,2,"dolphin.png"
"09/02/2021 22:44:29","09/02/2021 17:44:27",40999,4,3008809,"5ec771e68288e91bf1919096","Firefox 85.0","final_recon",3,"SS3",26,"Screen 1","response_button_image",3605,"flamingo.png",1,0,0,"recon_trial","SS3",3,3,"rand","pet store.png",2,3,"camel.png"
"09/02/2021 22:44:30","09/02/2021 17:44:29",40999,4,3008809,"5ec771e68288e91bf1919096","Firefox 85.0","final_recon",3,"SS3",27,"Screen 1","response_button_image",1628,"camel.png",1,0,0,"recon_trial","SS3",3,3,"rand","pet store.png",3,1,"ladybug.png"
"09/02/2021 22:44:31","09/02/2021 17:44:29",40999,4,3008809,"5ec771e68288e91bf1919096","Firefox 85.0","final_recon",3,"SS3",28,"Screen 1","response_button_image",613,"koala.png",1,0,0,"recon_trial","SS3",3,3,"rand","pet store.png",4,4,"lemur.png"
"09/02/2021 22:44:32","09/02/2021 17:44:30",40999,4,3008809,"5ec771e68288e91bf1919096","Firefox 85.0","final_recon",3,"SS3",29,"Screen 1","response_button_image",531,"ladybug.png",1,0,0,"recon_trial","SS3",3,3,"rand","pet store.png",5,1,"koala.png"
"09/02/2021 22:44:32","09/02/2021 17:44:30",40999,4,3008809,"5ec771e68288e91bf1919096","Firefox 85.0","final_recon",3,"SS3",30,"Screen 1","response_button_image",422,"lemur.png",1,0,0,"recon_trial","SS3",3,3,"rand","pet store.png",6,3,"flamingo.png"
"09/02/2021 22:54:08","09/02/2021 17:54:06",40999,4,3008936,"5efa246d81a512824bc2d703","Chrome 88.0.4324.150","final_recon",3,"SS2",53,"Screen 1","response_button_image",3498.0099999957,"cinnamon.png",1,0,0,"recon_trial","SS2",7,4,"rand","grocery store.png",1,2,"basil.png"
"09/02/2021 22:54:09","09/02/2021 17:54:07",40999,4,3008936,"5efa246d81a512824bc2d703","Chrome 88.0.4324.150","final_recon",3,"SS2",54,"Screen 1","response_button_image",512.820000003558,"basil.png",1,0,0,"recon_trial","SS2",7,4,"rand","grocery store.png",2,4,"muffin.png"
"09/02/2021 22:54:10","09/02/2021 17:54:08",40999,4,3008936,"5efa246d81a512824bc2d703","Chrome 88.0.4324.150","final_recon",3,"SS2",55,"Screen 1","response_button_image",1002.21999999485,"bakedpotato.png",1,1,0,"recon_trial","SS2",7,4,"rand","grocery store.png",3,3,"bakedpotato.png"
"09/02/2021 22:54:10","09/02/2021 17:54:09",40999,4,3008936,"5efa246d81a512824bc2d703","Chrome 88.0.4324.150","final_recon",3,"SS2",56,"Screen 1","response_button_image",670.259999998962,"corn.png",1,0,0,"recon_trial","SS2",7,4,"rand","grocery store.png",4,1,"cinnamon.png"
"09/02/2021 22:54:11","09/02/2021 17:54:09",40999,4,3008936,"5efa246d81a512824bc2d703","Chrome 88.0.4324.150","final_recon",3,"SS2",57,"Screen 1","response_button_image",615.149999997811,"garlic.png",1,1,0,"recon_trial","SS2",7,4,"rand","grocery store.png",5,3,"garlic.png"
"09/02/2021 22:54:12","09/02/2021 17:54:10",40999,4,3008936,"5efa246d81a512824bc2d703","Chrome 88.0.4324.150","final_recon",3,"SS2",58,"Screen 1","response_button_image",539.720000000671,"muffin.png",1,0,0,"recon_trial","SS2",7,4,"rand","grocery store.png",6,4,"corn.png"
"09/02/2021 22:54:17","09/02/2021 17:54:15",40999,4,3008936,"5efa246d81a512824bc2d703","Chrome 88.0.4324.150","final_recon",3,"SS2",18,"Screen 1","response_button_image",4679.74500000128,"ferret.png",1,1,0,"recon_trial","SS2",3,1,"pred","pet store.png",1,1,"ferret.png"
"09/02/2021 22:54:18","09/02/2021 17:54:16",40999,4,3008936,"5efa246d81a512824bc2d703","Chrome 88.0.4324.150","final_recon",3,"SS2",19,"Screen 1","response_button_image",522.000000011758,"beetle.png",1,1,0,"recon_trial","SS2",3,1,"pred","pet store.png",2,4,"beetle.png"
"09/02/2021 22:54:18","09/02/2021 17:54:16",40999,4,3008936,"5efa246d81a512824bc2d703","Chrome 88.0.4324.150","final_recon",3,"SS2",20,"Screen 1","response_button_image",455.900000000838,"cardinal.png",1,0,0,"recon_trial","SS2",3,1,"pred","pet store.png",3,3,"emu.png"
"09/02/2021 22:54:19","09/02/2021 17:54:18",40999,4,3008936,"5efa246d81a512824bc2d703","Chrome 88.0.4324.150","final_recon",3,"SS2",21,"Screen 1","response_button_image",1056.91999998817,"emu.png",1,0,0,"recon_trial","SS2",3,1,"pred","pet store.png",4,4,"cardinal.png"
"09/02/2021 22:54:20","09/02/2021 17:54:19",40999,4,3008936,"5efa246d81a512824bc2d703","Chrome 88.0.4324.150","final_recon",3,"SS2",22,"Screen 1","response_button_image",1048.36000000068,"pangolin.png",1,0,0,"recon_trial","SS2",3,1,"pred","pet store.png",5,2,"ostrich.png"
"09/02/2021 22:54:21","09/02/2021 17:54:19",40999,4,3008936,"5efa246d81a512824bc2d703","Chrome 88.0.4324.150","final_recon",3,"SS2",23,"Screen 1","response_button_image",391.869999992196,"ostrich.png",1,0,0,"recon_trial","SS2",3,1,"pred","pet store.png",6,3,"pangolin.png"
"09/02/2021 22:54:24","09/02/2021 17:54:22",40999,4,3008936,"5efa246d81a512824bc2d703","Chrome 88.0.4324.150","final_recon",3,"SS2",39,"Screen 1","response_button_image",1576.69499999611,"pancakes.png",1,0,0,"recon_trial","SS2",5,3,"rand","grocery store.png",1,3,"apple.png"
"09/02/2021 22:54:24","09/02/2021 17:54:22",40999,4,3008936,"5efa246d81a512824bc2d703","Chrome 88.0.4324.150","final_recon",3,"SS2",40,"Screen 1","response_button_image",772.369999991497,"apple.png",1,0,0,"recon_trial","SS2",5,3,"rand","grocery store.png",2,4,"lemon.png"
"09/02/2021 22:54:25","09/02/2021 17:54:23",40999,4,3008936,"5efa246d81a512824bc2d703","Chrome 88.0.4324.150","final_recon",3,"SS2",41,"Screen 1","response_button_image",628.299999996671,"artichoke.png",1,0,0,"recon_trial","SS2",5,3,"rand","grocery store.png",3,1,"gummybears.png"
"09/02/2021 22:54:26","09/02/2021 17:54:24",40999,4,3008936,"5efa246d81a512824bc2d703","Chrome 88.0.4324.150","final_recon",3,"SS2",42,"Screen 1","response_button_image",767.514999999548,"gummybears.png",1,0,0,"recon_trial","SS2",5,3,"rand","grocery store.png",4,2,"artichoke.png"
"09/02/2021 22:54:26","09/02/2021 17:54:24",40999,4,3008936,"5efa246d81a512824bc2d703","Chrome 88.0.4324.150","final_recon",3,"SS2",43,"Screen 1","response_button_image",516.669999997248,"dumplings.png",1,0,0,"recon_trial","SS2",5,3,"rand","grocery store.png",5,1,"pancakes.png"
"09/02/2021 22:54:27","09/02/2021 17:54:25",40999,4,3008936,"5efa246d81a512824bc2d703","Chrome 88.0.4324.150","final_recon",3,"SS2",44,"Screen 1","response_button_image",427.304999990156,"lemon.png",1,0,0,"recon_trial","SS2",5,3,"rand","grocery store.png",6,4,"dumplings.png"
"09/02/2021 22:54:30","09/02/2021 17:54:28",40999,4,3008936,"5efa246d81a512824bc2d703","Chrome 88.0.4324.150","final_recon",3,"SS2",11,"Screen 1","response_button_image",2288.8699999894,"waffle.png",1,1,0,"recon_trial","SS2",1,2,"rand","grocery store.png",1,2,"waffle.png"
"09/02/2021 22:54:31","09/02/2021 17:54:29",40999,4,3008936,"5efa246d81a512824bc2d703","Chrome 88.0.4324.150","final_recon",3,"SS2",12,"Screen 1","response_button_image",1019.33000001009,"caramelapple.png",1,1,0,"recon_trial","SS2",1,2,"rand","grocery store.png",2,3,"caramelapple.png"
"09/02/2021 22:54:32","09/02/2021 17:54:30",40999,4,3008936,"5efa246d81a512824bc2d703","Chrome 88.0.4324.150","final_recon",3,"SS2",13,"Screen 1","response_button_image",337.230000004638,"hummus.png",1,1,0,"recon_trial","SS2",1,2,"rand","grocery store.png",3,1,"hummus.png"
"09/02/2021 22:54:32","09/02/2021 17:54:30",40999,4,3008936,"5efa246d81a512824bc2d703","Chrome 88.0.4324.150","final_recon",3,"SS2",14,"Screen 1","response_button_image",536.619999998948,"nachos.png",1,1,0,"recon_trial","SS2",1,2,"rand","grocery store.png",4,3,"nachos.png"
"09/02/2021 22:54:33","09/02/2021 17:54:31",40999,4,3008936,"5efa246d81a512824bc2d703","Chrome 88.0.4324.150","final_recon",3,"SS2",15,"Screen 1","response_button_image",512.125000008382,"pork.png",1,0,0,"recon_trial","SS2",1,2,"rand","grocery store.png",5,4,"sandwich.png"
"09/02/2021 22:54:33","09/02/2021 17:54:31",40999,4,3008936,"5efa246d81a512824bc2d703","Chrome 88.0.4324.150","final_recon",3,"SS2",16,"Screen 1","response_button_image",553.075000003446,"sandwich.png",1,0,0,"recon_trial","SS2",1,2,"rand","grocery store.png",6,1,"pork.png"
"09/02/2021 22:54:37","09/02/2021 17:54:35",40999,4,3008936,"5efa246d81a512824bc2d703","Chrome 88.0.4324.150","final_recon",3,"SS2",4,"Screen 1","response_button_image",2495.459999991,"bear.png",1,1,0,"recon_trial","SS2",1,4,"pred","pet store.png",1,1,"bear.png"
"09/02/2021 22:54:38","09/02/2021 17:54:36",40999,4,3008936,"5efa246d81a512824bc2d703","Chrome 88.0.4324.150","final_recon",3,"SS2",5,"Screen 1","response_button_image",1484.83500001021,"lion.png",1,1,0,"recon_trial","SS2",1,4,"pred","pet store.png",2,4,"lion.png"
"09/02/2021 22:54:39","09/02/2021 17:54:37",40999,4,3008936,"5efa246d81a512824bc2d703","Chrome 88.0.4324.150","final_recon",3,"SS2",6,"Screen 1","response_button_image",350.305000014487,"moose.png",1,0,0,"recon_trial","SS2",1,4,"pred","pet store.png",3,3,"stingray.png"
"09/02/2021 22:54:39","09/02/2021 17:54:37",40999,4,3008936,"5efa246d81a512824bc2d703","Chrome 88.0.4324.150","final_recon",3,"SS2",7,"Screen 1","response_button_image",597.469999993336,"camel.png",1,1,0,"recon_trial","SS2",1,4,"pred","pet store.png",4,4,"camel.png"
"09/02/2021 22:54:40","09/02/2021 17:54:38",40999,4,3008936,"5efa246d81a512824bc2d703","Chrome 88.0.4324.150","final_recon",3,"SS2",8,"Screen 1","response_button_image",926.559999992605,"stingray.png",1,0,0,"recon_trial","SS2",1,4,"pred","pet store.png",5,2,"moose.png"
"09/02/2021 22:54:41","09/02/2021 17:54:39",40999,4,3008936,"5efa246d81a512824bc2d703","Chrome 88.0.4324.150","final_recon",3,"SS2",9,"Screen 1","response_button_image",482.364999988931,"panda.png",1,1,0,"recon_trial","SS2",1,4,"pred","pet store.png",6,3,"panda.png"
"09/02/2021 22:54:44","09/02/2021 17:54:42",40999,4,3008936,"5efa246d81a512824bc2d703","Chrome 88.0.4324.150","final_recon",3,"SS2",25,"Screen 1","response_button_image",2315.19999999728,"strawberries.png",1,0,0,"recon_trial","SS2",3,2,"rand","grocery store.png",1,3,"avocado.png"
"09/02/2021 22:54:45","09/02/2021 17:54:43",40999,4,3008936,"5efa246d81a512824bc2d703","Chrome 88.0.4324.150","final_recon",3,"SS2",26,"Screen 1","response_button_image",605.145000008633,"starfruit.png",1,0,0,"recon_trial","SS2",3,2,"rand","grocery store.png",2,1,"strawberries.png"
"09/02/2021 22:54:45","09/02/2021 17:54:44",40999,4,3008936,"5efa246d81a512824bc2d703","Chrome 88.0.4324.150","final_recon",3,"SS2",27,"Screen 1","response_button_image",591.824999995879,"blackpepper.png",1,0,0,"recon_trial","SS2",3,2,"rand","grocery store.png",3,4,"peaches.png"
"09/02/2021 22:54:46","09/02/2021 17:54:44",40999,4,3008936,"5efa246d81a512824bc2d703","Chrome 88.0.4324.150","final_recon",3,"SS2",28,"Screen 1","response_button_image",627.399999997579,"peaches.png",1,0,0,"recon_trial","SS2",3,2,"rand","grocery store.png",4,2,"blackpepper.png"
"09/02/2021 22:54:46","09/02/2021 17:54:45",40999,4,3008936,"5efa246d81a512824bc2d703","Chrome 88.0.4324.150","final_recon",3,"SS2",29,"Screen 1","response_button_image",323.944999996456,"rice.png",1,0,0,"recon_trial","SS2",3,2,"rand","grocery store.png",5,4,"starfruit.png"
"09/02/2021 22:54:47","09/02/2021 17:54:45",40999,4,3008936,"5efa246d81a512824bc2d703","Chrome 88.0.4324.150","final_recon",3,"SS2",30,"Screen 1","response_button_image",638.309999994817,"avocado.png",1,0,0,"recon_trial","SS2",3,2,"rand","grocery store.png",6,1,"rice.png"
"09/02/2021 22:54:51","09/02/2021 17:54:49",40999,4,3008936,"5efa246d81a512824bc2d703","Chrome 88.0.4324.150","final_recon",3,"SS2",32,"Screen 1","response_button_image",2554.12499999511,"panther.png",1,1,0,"recon_trial","SS2",5,1,"pred","pet store.png",1,1,"panther.png"
"09/02/2021 22:54:53","09/02/2021 17:54:51",40999,4,3008936,"5efa246d81a512824bc2d703","Chrome 88.0.4324.150","final_recon",3,"SS2",33,"Screen 1","response_button_image",1906.7800000048,"seahorse.png",1,0,0,"recon_trial","SS2",5,1,"pred","pet store.png",2,4,"bat.png"
"09/02/2021 22:54:53","09/02/2021 17:54:51",40999,4,3008936,"5efa246d81a512824bc2d703","Chrome 88.0.4324.150","final_recon",3,"SS2",34,"Screen 1","response_button_image",564.400000002934,"bat.png",1,0,0,"recon_trial","SS2",5,1,"pred","pet store.png",3,3,"chameleon.png"
"09/02/2021 22:54:54","09/02/2021 17:54:52",40999,4,3008936,"5efa246d81a512824bc2d703","Chrome 88.0.4324.150","final_recon",3,"SS2",35,"Screen 1","response_button_image",547.480000008363,"deer.png",1,0,0,"recon_trial","SS2",5,1,"pred","pet store.png",4,4,"seahorse.png"
"09/02/2021 22:54:54","09/02/2021 17:54:53",40999,4,3008936,"5efa246d81a512824bc2d703","Chrome 88.0.4324.150","final_recon",3,"SS2",36,"Screen 1","response_button_image",660.455000004731,"bat.png",1,0,0,"recon_trial","SS2",5,1,"pred","pet store.png",5,2,"deer.png"
"09/02/2021 22:54:55","09/02/2021 17:54:53",40999,4,3008936,"5efa246d81a512824bc2d703","Chrome 88.0.4324.150","final_recon",3,"SS2",37,"Screen 1","response_button_image",635.355000005802,"crocodile.png",1,1,0,"recon_trial","SS2",5,1,"pred","pet store.png",6,3,"crocodile.png"
"09/02/2021 22:55:00","09/02/2021 17:54:58",40999,4,3008936,"5efa246d81a512824bc2d703","Chrome 88.0.4324.150","final_recon",3,"SS2",46,"Screen 1","response_button_image",3724.62999999698,"penguin.png",1,1,0,"recon_trial","SS2",7,2,"pred","pet store.png",1,1,"penguin.png"
"09/02/2021 22:55:01","09/02/2021 17:54:59",40999,4,3008936,"5efa246d81a512824bc2d703","Chrome 88.0.4324.150","final_recon",3,"SS2",47,"Screen 1","response_button_image",780.91499999573,"cow.png",1,1,0,"recon_trial","SS2",7,2,"pred","pet store.png",2,4,"cow.png"
"09/02/2021 22:55:01","09/02/2021 17:54:59",40999,4,3008936,"5efa246d81a512824bc2d703","Chrome 88.0.4324.150","final_recon",3,"SS2",48,"Screen 1","response_button_image",593.305000002147,"butterfly.png",1,0,0,"recon_trial","SS2",7,2,"pred","pet store.png",3,3,"caterpillar.png"
"09/02/2021 22:55:02","09/02/2021 17:55:00",40999,4,3008936,"5efa246d81a512824bc2d703","Chrome 88.0.4324.150","final_recon",3,"SS2",49,"Screen 1","response_button_image",474.165000006906,"zebra.png",1,1,0,"recon_trial","SS2",7,2,"pred","pet store.png",4,4,"zebra.png"
"09/02/2021 22:55:02","09/02/2021 17:55:00",40999,4,3008936,"5efa246d81a512824bc2d703","Chrome 88.0.4324.150","final_recon",3,"SS2",50,"Screen 1","response_button_image",603.284999990137,"caterpillar.png",1,0,0,"recon_trial","SS2",7,2,"pred","pet store.png",5,2,"butterfly.png"
"09/02/2021 22:55:03","09/02/2021 17:55:02",40999,4,3008936,"5efa246d81a512824bc2d703","Chrome 88.0.4324.150","final_recon",3,"SS2",51,"Screen 1","response_button_image",1050.09000000427,"boar.png",1,1,0,"recon_trial","SS2",7,2,"pred","pet store.png",6,3,"boar.png"
"09/02/2021 23:08:12","09/02/2021 18:08:11",40999,4,3008923,"5ad9cc7ddfcfcb0001e667f3","Chrome 87.0.4280.141","final_recon",3,"SS7",53,"Screen 1","response_button_image",6235.56500021368,"panther.png",1,1,0,"recon_trial","SS7",7,2,"rand","pet store.png",1,2,"panther.png"
"09/02/2021 23:08:16","09/02/2021 18:08:15",40999,4,3008923,"5ad9cc7ddfcfcb0001e667f3","Chrome 87.0.4280.141","final_recon",3,"SS7",54,"Screen 1","response_button_image",4250.95999985933,"donkey.png",1,0,0,"recon_trial","SS7",7,2,"rand","pet store.png",2,4,"cuttlefish.png"
"09/02/2021 23:08:18","09/02/2021 18:08:16",40999,4,3008923,"5ad9cc7ddfcfcb0001e667f3","Chrome 87.0.4280.141","final_recon",3,"SS7",55,"Screen 1","response_button_image",1091.52499958873,"crab.png",1,0,0,"recon_trial","SS7",7,2,"rand","pet store.png",3,1,"vulture.png"
"09/02/2021 23:08:18","09/02/2021 18:08:17",40999,4,3008923,"5ad9cc7ddfcfcb0001e667f3","Chrome 87.0.4280.141","final_recon",3,"SS7",56,"Screen 1","response_button_image",399.760000407696,"vulture.png",1,0,0,"recon_trial","SS7",7,2,"rand","pet store.png",4,3,"donkey.png"
"09/02/2021 23:08:20","09/02/2021 18:08:18",40999,4,3008923,"5ad9cc7ddfcfcb0001e667f3","Chrome 87.0.4280.141","final_recon",3,"SS7",57,"Screen 1","response_button_image",1331.88500069082,"cuttlefish.png",1,0,0,"recon_trial","SS7",7,2,"rand","pet store.png",5,4,"crab.png"
"09/02/2021 23:08:20","09/02/2021 18:08:18",40999,4,3008923,"5ad9cc7ddfcfcb0001e667f3","Chrome 87.0.4280.141","final_recon",3,"SS7",58,"Screen 1","response_button_image",392.649999819696,"walrus.png",1,1,0,"recon_trial","SS7",7,2,"rand","pet store.png",6,3,"walrus.png"
"09/02/2021 23:08:25","09/02/2021 18:08:24",40999,4,3008923,"5ad9cc7ddfcfcb0001e667f3","Chrome 87.0.4280.141","final_recon",3,"SS7",25,"Screen 1","response_button_image",4233.45000017434,"dolphin.png",1,1,0,"recon_trial","SS7",3,1,"rand","pet store.png",1,4,"dolphin.png"
"09/02/2021 23:08:31","09/02/2021 18:08:29",40999,4,3008923,"5ad9cc7ddfcfcb0001e667f3","Chrome 87.0.4280.141","final_recon",3,"SS7",26,"Screen 1","response_button_image",5731.07999935746,"pangolin.png",1,1,0,"recon_trial","SS7",3,1,"rand","pet store.png",2,2,"pangolin.png"
"09/02/2021 23:08:32","09/02/2021 18:08:30",40999,4,3008923,"5ad9cc7ddfcfcb0001e667f3","Chrome 87.0.4280.141","final_recon",3,"SS7",27,"Screen 1","response_button_image",762.064999900758,"octopus.png",1,0,0,"recon_trial","SS7",3,1,"rand","pet store.png",3,3,"manatee.png"
"09/02/2021 23:08:33","09/02/2021 18:08:31",40999,4,3008923,"5ad9cc7ddfcfcb0001e667f3","Chrome 87.0.4280.141","final_recon",3,"SS7",28,"Screen 1","response_button_image",962.425000034273,"bettafish.png",1,0,0,"recon_trial","SS7",3,1,"rand","pet store.png",4,1,"mantis.png"
"09/02/2021 23:08:34","09/02/2021 18:08:33",40999,4,3008923,"5ad9cc7ddfcfcb0001e667f3","Chrome 87.0.4280.141","final_recon",3,"SS7",29,"Screen 1","response_button_image",1371.96499947459,"manatee.png",1,0,0,"recon_trial","SS7",3,1,"rand","pet store.png",5,3,"octopus.png"
"09/02/2021 23:08:35","09/02/2021 18:08:33",40999,4,3008923,"5ad9cc7ddfcfcb0001e667f3","Chrome 87.0.4280.141","final_recon",3,"SS7",30,"Screen 1","response_button_image",402.700000442564,"mantis.png",1,0,0,"recon_trial","SS7",3,1,"rand","pet store.png",6,2,"bettafish.png"
"09/02/2021 23:08:40","09/02/2021 18:08:38",40999,4,3008923,"5ad9cc7ddfcfcb0001e667f3","Chrome 87.0.4280.141","final_recon",3,"SS7",39,"Screen 1","response_button_image",4194.60999965668,"toad.png",1,1,0,"recon_trial","SS7",5,3,"rand","pet store.png",1,4,"toad.png"
"09/02/2021 23:08:42","09/02/2021 18:08:41",40999,4,3008923,"5ad9cc7ddfcfcb0001e667f3","Chrome 87.0.4280.141","final_recon",3,"SS7",40,"Screen 1","response_button_image",2176.40000022948,"whale.png",1,0,0,"recon_trial","SS7",5,3,"rand","pet store.png",2,2,"giraffe.png"
"09/02/2021 23:08:45","09/02/2021 18:08:44",40999,4,3008923,"5ad9cc7ddfcfcb0001e667f3","Chrome 87.0.4280.141","final_recon",3,"SS7",41,"Screen 1","response_button_image",3060.48000045121,"bloodhound.png",1,1,0,"recon_trial","SS7",5,3,"rand","pet store.png",3,1,"bloodhound.png"
"09/02/2021 23:08:46","09/02/2021 18:08:45",40999,4,3008923,"5ad9cc7ddfcfcb0001e667f3","Chrome 87.0.4280.141","final_recon",3,"SS7",42,"Screen 1","response_button_image",1009.30999964476,"hippo.png",1,1,0,"recon_trial","SS7",5,3,"rand","pet store.png",4,3,"hippo.png"
"09/02/2021 23:08:47","09/02/2021 18:08:45",40999,4,3008923,"5ad9cc7ddfcfcb0001e667f3","Chrome 87.0.4280.141","final_recon",3,"SS7",43,"Screen 1","response_button_image",511.369999498129,"turkey.png",1,0,0,"recon_trial","SS7",5,3,"rand","pet store.png",5,2,"whale.png"
"09/02/2021 23:08:47","09/02/2021 18:08:46",40999,4,3008923,"5ad9cc7ddfcfcb0001e667f3","Chrome 87.0.4280.141","final_recon",3,"SS7",44,"Screen 1","response_button_image",406.064999289811,"giraffe.png",1,0,0,"recon_trial","SS7",5,3,"rand","pet store.png",6,3,"turkey.png"
"09/02/2021 23:08:52","09/02/2021 18:08:50",40999,4,3008923,"5ad9cc7ddfcfcb0001e667f3","Chrome 87.0.4280.141","final_recon",3,"SS7",11,"Screen 1","response_button_image",3661.20500024408,"bear.png",1,1,0,"recon_trial","SS7",1,4,"rand","pet store.png",1,4,"bear.png"
"09/02/2021 23:08:54","09/02/2021 18:08:52",40999,4,3008923,"5ad9cc7ddfcfcb0001e667f3","Chrome 87.0.4280.141","final_recon",3,"SS7",12,"Screen 1","response_button_image",1725.07999930531,"elephant.png",1,0,0,"recon_trial","SS7",1,4,"rand","pet store.png",2,2,"lion.png"
"09/02/2021 23:08:55","09/02/2021 18:08:53",40999,4,3008923,"5ad9cc7ddfcfcb0001e667f3","Chrome 87.0.4280.141","final_recon",3,"SS7",13,"Screen 1","response_button_image",1148.5850000754,"boar.png",1,0,0,"recon_trial","SS7",1,4,"rand","pet store.png",3,3,"deer.png"
"09/02/2021 23:08:55","09/02/2021 18:08:54",40999,4,3008923,"5ad9cc7ddfcfcb0001e667f3","Chrome 87.0.4280.141","final_recon",3,"SS7",14,"Screen 1","response_button_image",337.92999945581,"lion.png",1,0,0,"recon_trial","SS7",1,4,"rand","pet store.png",4,1,"crocodile.png"
"09/02/2021 23:08:56","09/02/2021 18:08:54",40999,4,3008923,"5ad9cc7ddfcfcb0001e667f3","Chrome 87.0.4280.141","final_recon",3,"SS7",15,"Screen 1","response_button_image",598.214999772608,"deer.png",1,0,0,"recon_trial","SS7",1,4,"rand","pet store.png",5,2,"boar.png"
"09/02/2021 23:08:57","09/02/2021 18:08:55",40999,4,3008923,"5ad9cc7ddfcfcb0001e667f3","Chrome 87.0.4280.141","final_recon",3,"SS7",16,"Screen 1","response_button_image",683.339999988675,"crocodile.png",1,0,0,"recon_trial","SS7",1,4,"rand","pet store.png",6,1,"elephant.png"
"09/02/2021 23:08:59","09/02/2021 18:08:58",40999,4,3008923,"5ad9cc7ddfcfcb0001e667f3","Chrome 87.0.4280.141","final_recon",3,"SS7",18,"Screen 1","response_button_image",1853.63000072539,"avocado.png",1,1,0,"recon_trial","SS7",3,2,"pred","grocery store.png",1,3,"avocado.png"
"09/02/2021 23:09:04","09/02/2021 18:09:02",40999,4,3008923,"5ad9cc7ddfcfcb0001e667f3","Chrome 87.0.4280.141","final_recon",3,"SS7",19,"Screen 1","response_button_image",4133.69499985129,"cantaloupe.png",1,0,0,"recon_trial","SS7",3,2,"pred","grocery store.png",2,2,"peaches.png"
"09/02/2021 23:09:04","09/02/2021 18:09:03",40999,4,3008923,"5ad9cc7ddfcfcb0001e667f3","Chrome 87.0.4280.141","final_recon",3,"SS7",20,"Screen 1","response_button_image",610.814999789,"peaches.png",1,0,0,"recon_trial","SS7",3,2,"pred","grocery store.png",3,4,"cantaloupe.png"
"09/02/2021 23:09:05","09/02/2021 18:09:04",40999,4,3008923,"5ad9cc7ddfcfcb0001e667f3","Chrome 87.0.4280.141","final_recon",3,"SS7",21,"Screen 1","response_button_image",831.600000150502,"coffee.png",1,1,0,"recon_trial","SS7",3,2,"pred","grocery store.png",4,2,"coffee.png"
"09/02/2021 23:09:06","09/02/2021 18:09:04",40999,4,3008923,"5ad9cc7ddfcfcb0001e667f3","Chrome 87.0.4280.141","final_recon",3,"SS7",22,"Screen 1","response_button_image",498.689999803901,"icecreamsandwich.png",1,0,0,"recon_trial","SS7",3,2,"pred","grocery store.png",5,1,"cheese.png"
"09/02/2021 23:09:06","09/02/2021 18:09:05",40999,4,3008923,"5ad9cc7ddfcfcb0001e667f3","Chrome 87.0.4280.141","final_recon",3,"SS7",23,"Screen 1","response_button_image",557.420000433922,"cheese.png",1,0,0,"recon_trial","SS7",3,2,"pred","grocery store.png",6,4,"icecreamsandwich.png"
"09/02/2021 23:09:10","09/02/2021 18:09:09",40999,4,3008923,"5ad9cc7ddfcfcb0001e667f3","Chrome 87.0.4280.141","final_recon",3,"SS7",4,"Screen 1","response_button_image",2827.49000005424,"donut.png",1,1,0,"recon_trial","SS7",1,2,"pred","grocery store.png",1,3,"donut.png"
"09/02/2021 23:09:11","09/02/2021 18:09:10",40999,4,3008923,"5ad9cc7ddfcfcb0001e667f3","Chrome 87.0.4280.141","final_recon",3,"SS7",5,"Screen 1","response_button_image",1004.08500060439,"cake.png",1,1,0,"recon_trial","SS7",1,2,"pred","grocery store.png",2,2,"cake.png"
"09/02/2021 23:09:14","09/02/2021 18:09:12",40999,4,3008923,"5ad9cc7ddfcfcb0001e667f3","Chrome 87.0.4280.141","final_recon",3,"SS7",6,"Screen 1","response_button_image",2536.12000029534,"cherries.png",1,0,0,"recon_trial","SS7",1,2,"pred","grocery store.png",3,4,"starfruit.png"
"09/02/2021 23:09:14","09/02/2021 18:09:13",40999,4,3008923,"5ad9cc7ddfcfcb0001e667f3","Chrome 87.0.4280.141","final_recon",3,"SS7",7,"Screen 1","response_button_image",542.655000463128,"poutine.png",1,1,0,"recon_trial","SS7",1,2,"pred","grocery store.png",4,2,"poutine.png"
"09/02/2021 23:09:15","09/02/2021 18:09:13",40999,4,3008923,"5ad9cc7ddfcfcb0001e667f3","Chrome 87.0.4280.141","final_recon",3,"SS7",8,"Screen 1","response_button_image",467.234999872744,"starfruit.png",1,0,0,"recon_trial","SS7",1,2,"pred","grocery store.png",5,1,"cherries.png"
"09/02/2021 23:09:16","09/02/2021 18:09:14",40999,4,3008923,"5ad9cc7ddfcfcb0001e667f3","Chrome 87.0.4280.141","final_recon",3,"SS7",9,"Screen 1","response_button_image",598.415000364184,"caramelapple.png",1,1,0,"recon_trial","SS7",1,2,"pred","grocery store.png",6,4,"caramelapple.png"
"09/02/2021 23:09:21","09/02/2021 18:09:20",40999,4,3008923,"5ad9cc7ddfcfcb0001e667f3","Chrome 87.0.4280.141","final_recon",3,"SS7",46,"Screen 1","response_button_image",4341.95500053465,"hotdog.png",1,0,0,"recon_trial","SS7",7,4,"pred","grocery store.png",1,3,"rice.png"
"09/02/2021 23:09:22","09/02/2021 18:09:21",40999,4,3008923,"5ad9cc7ddfcfcb0001e667f3","Chrome 87.0.4280.141","final_recon",3,"SS7",47,"Screen 1","response_button_image",1460.54999995977,"jalapeno.png",1,0,0,"recon_trial","SS7",7,4,"pred","grocery store.png",2,2,"oliveoil.png"
"09/02/2021 23:09:23","09/02/2021 18:09:21",40999,4,3008923,"5ad9cc7ddfcfcb0001e667f3","Chrome 87.0.4280.141","final_recon",3,"SS7",48,"Screen 1","response_button_image",379.530000500381,"chocolate.png",1,0,0,"recon_trial","SS7",7,4,"pred","grocery store.png",3,4,"hotdog.png"
"09/02/2021 23:09:24","09/02/2021 18:09:22",40999,4,3008923,"5ad9cc7ddfcfcb0001e667f3","Chrome 87.0.4280.141","final_recon",3,"SS7",49,"Screen 1","response_button_image",598.690000362694,"lychee.png",1,0,0,"recon_trial","SS7",7,4,"pred","grocery store.png",4,2,"chocolate.png"
"09/02/2021 23:09:24","09/02/2021 18:09:23",40999,4,3008923,"5ad9cc7ddfcfcb0001e667f3","Chrome 87.0.4280.141","final_recon",3,"SS7",50,"Screen 1","response_button_image",402.870000340044,"rice.png",1,0,0,"recon_trial","SS7",7,4,"pred","grocery store.png",5,1,"lychee.png"
"09/02/2021 23:09:24","09/02/2021 18:09:23",40999,4,3008923,"5ad9cc7ddfcfcb0001e667f3","Chrome 87.0.4280.141","final_recon",3,"SS7",51,"Screen 1","response_button_image",419.610000215471,"oliveoil.png",1,0,0,"recon_trial","SS7",7,4,"pred","grocery store.png",6,4,"jalapeno.png"
"09/02/2021 23:09:30","09/02/2021 18:09:28",40999,4,3008923,"5ad9cc7ddfcfcb0001e667f3","Chrome 87.0.4280.141","final_recon",3,"SS7",32,"Screen 1","response_button_image",4093.22500042617,"sandwich.png",1,1,0,"recon_trial","SS7",5,4,"pred","grocery store.png",1,3,"sandwich.png"
"09/02/2021 23:09:30","09/02/2021 18:09:29",40999,4,3008923,"5ad9cc7ddfcfcb0001e667f3","Chrome 87.0.4280.141","final_recon",3,"SS7",33,"Screen 1","response_button_image",517.454999499023,"brusselsprouts.png",1,1,0,"recon_trial","SS7",5,4,"pred","grocery store.png",2,2,"brusselsprouts.png"
"09/02/2021 23:09:32","09/02/2021 18:09:30",40999,4,3008923,"5ad9cc7ddfcfcb0001e667f3","Chrome 87.0.4280.141","final_recon",3,"SS7",34,"Screen 1","response_button_image",1475.58500058949,"chocolatemilk.png",1,1,0,"recon_trial","SS7",5,4,"pred","grocery store.png",3,4,"chocolatemilk.png"
"09/02/2021 23:09:32","09/02/2021 18:09:31",40999,4,3008923,"5ad9cc7ddfcfcb0001e667f3","Chrome 87.0.4280.141","final_recon",3,"SS7",35,"Screen 1","response_button_image",304.969999939203,"edamame.png",1,1,0,"recon_trial","SS7",5,4,"pred","grocery store.png",4,2,"edamame.png"
"09/02/2021 23:09:33","09/02/2021 18:09:31",40999,4,3008923,"5ad9cc7ddfcfcb0001e667f3","Chrome 87.0.4280.141","final_recon",3,"SS7",36,"Screen 1","response_button_image",654.389999806881,"hummus.png",1,1,0,"recon_trial","SS7",5,4,"pred","grocery store.png",5,1,"hummus.png"
"09/02/2021 23:09:33","09/02/2021 18:09:32",40999,4,3008923,"5ad9cc7ddfcfcb0001e667f3","Chrome 87.0.4280.141","final_recon",3,"SS7",37,"Screen 1","response_button_image",778.164999559522,"peanutbutter.png",1,1,0,"recon_trial","SS7",5,4,"pred","grocery store.png",6,4,"peanutbutter.png"
"09/02/2021 23:10:27","09/02/2021 18:11:20",40999,4,3008859,"5fc8095db2180e13362a7b3c","Chrome 88.0.4324.146","final_recon",3,"SS6",4,"Screen 1","response_button_image",8943.07999999728,"hummingbird.png",1,1,0,"recon_trial","SS6",1,4,"pred","pet store.png",1,1,"hummingbird.png"
"09/02/2021 23:10:28","09/02/2021 18:11:22",40999,4,3008859,"5fc8095db2180e13362a7b3c","Chrome 88.0.4324.146","final_recon",3,"SS6",5,"Screen 1","response_button_image",1343.46000000369,"shark.png",1,0,0,"recon_trial","SS6",1,4,"pred","pet store.png",2,4,"fox.png"
"09/02/2021 23:10:31","09/02/2021 18:11:25",40999,4,3008859,"5fc8095db2180e13362a7b3c","Chrome 88.0.4324.146","final_recon",3,"SS6",6,"Screen 1","response_button_image",3567.47999999789,"fox.png",1,0,0,"recon_trial","SS6",1,4,"pred","pet store.png",3,3,"whale.png"
"09/02/2021 23:10:32","09/02/2021 18:11:26",40999,4,3008859,"5fc8095db2180e13362a7b3c","Chrome 88.0.4324.146","final_recon",3,"SS6",7,"Screen 1","response_button_image",456.9050000282,"whale.png",1,0,0,"recon_trial","SS6",1,4,"pred","pet store.png",4,4,"goose.png"
"09/02/2021 23:10:33","09/02/2021 18:11:27",40999,4,3008859,"5fc8095db2180e13362a7b3c","Chrome 88.0.4324.146","final_recon",3,"SS6",8,"Screen 1","response_button_image",892.820000008214,"hippo.png",1,1,0,"recon_trial","SS6",1,4,"pred","pet store.png",5,2,"hippo.png"
"09/02/2021 23:10:33","09/02/2021 18:11:27",40999,4,3008859,"5fc8095db2180e13362a7b3c","Chrome 88.0.4324.146","final_recon",3,"SS6",9,"Screen 1","response_button_image",550.670000026003,"goose.png",1,0,0,"recon_trial","SS6",1,4,"pred","pet store.png",6,3,"shark.png"
"09/02/2021 23:10:37","09/02/2021 18:11:30",40999,4,3008859,"5fc8095db2180e13362a7b3c","Chrome 88.0.4324.146","final_recon",3,"SS6",46,"Screen 1","response_button_image",2165.71000000113,"cuttlefish.png",1,1,0,"recon_trial","SS6",7,1,"pred","pet store.png",1,1,"cuttlefish.png"
"09/02/2021 23:10:37","09/02/2021 18:11:31",40999,4,3008859,"5fc8095db2180e13362a7b3c","Chrome 88.0.4324.146","final_recon",3,"SS6",47,"Screen 1","response_button_image",455.054999998538,"hammerheadshark.png",1,1,0,"recon_trial","SS6",7,1,"pred","pet store.png",2,4,"hammerheadshark.png"
"09/02/2021 23:10:39","09/02/2021 18:11:33",40999,4,3008859,"5fc8095db2180e13362a7b3c","Chrome 88.0.4324.146","final_recon",3,"SS6",48,"Screen 1","response_button_image",1782.07499999553,"ladybug.png",1,1,0,"recon_trial","SS6",7,1,"pred","pet store.png",3,3,"ladybug.png"
"09/02/2021 23:10:40","09/02/2021 18:11:34",40999,4,3008859,"5fc8095db2180e13362a7b3c","Chrome 88.0.4324.146","final_recon",3,"SS6",49,"Screen 1","response_button_image",1365.61000000802,"deer.png",1,0,0,"recon_trial","SS6",7,1,"pred","pet store.png",4,4,"dragonfly.png"
"09/02/2021 23:10:41","09/02/2021 18:11:35",40999,4,3008859,"5fc8095db2180e13362a7b3c","Chrome 88.0.4324.146","final_recon",3,"SS6",50,"Screen 1","response_button_image",420.00499999267,"dragonfly.png",1,0,0,"recon_trial","SS6",7,1,"pred","pet store.png",5,2,"pig.png"
"09/02/2021 23:10:42","09/02/2021 18:11:35",40999,4,3008859,"5fc8095db2180e13362a7b3c","Chrome 88.0.4324.146","final_recon",3,"SS6",51,"Screen 1","response_button_image",750.130000000354,"pig.png",1,0,0,"recon_trial","SS6",7,1,"pred","pet store.png",6,3,"deer.png"
"09/02/2021 23:10:45","09/02/2021 18:11:39",40999,4,3008859,"5fc8095db2180e13362a7b3c","Chrome 88.0.4324.146","final_recon",3,"SS6",25,"Screen 1","response_button_image",2401.79499998339,"cake.png",1,1,0,"recon_trial","SS6",3,2,"rand","grocery store.png",1,3,"cake.png"
"09/02/2021 23:10:47","09/02/2021 18:11:41",40999,4,3008859,"5fc8095db2180e13362a7b3c","Chrome 88.0.4324.146","final_recon",3,"SS6",26,"Screen 1","response_button_image",1730.979999993,"potatochips.png",1,1,0,"recon_trial","SS6",3,2,"rand","grocery store.png",2,4,"potatochips.png"
"09/02/2021 23:10:48","09/02/2021 18:11:42",40999,4,3008859,"5fc8095db2180e13362a7b3c","Chrome 88.0.4324.146","final_recon",3,"SS6",27,"Screen 1","response_button_image",1138.42500001192,"croissant.png",1,0,0,"recon_trial","SS6",3,2,"rand","grocery store.png",3,2,"nachos.png"
"09/02/2021 23:10:49","09/02/2021 18:11:43",40999,4,3008859,"5fc8095db2180e13362a7b3c","Chrome 88.0.4324.146","final_recon",3,"SS6",28,"Screen 1","response_button_image",694.57500000135,"nachos.png",1,0,0,"recon_trial","SS6",3,2,"rand","grocery store.png",4,1,"hotdog.png"
"09/02/2021 23:10:49","09/02/2021 18:11:43",40999,4,3008859,"5fc8095db2180e13362a7b3c","Chrome 88.0.4324.146","final_recon",3,"SS6",29,"Screen 1","response_button_image",679.940000001807,"hotdog.png",1,0,0,"recon_trial","SS6",3,2,"rand","grocery store.png",5,4,"croissant.png"
"09/02/2021 23:10:50","09/02/2021 18:11:44",40999,4,3008859,"5fc8095db2180e13362a7b3c","Chrome 88.0.4324.146","final_recon",3,"SS6",30,"Screen 1","response_button_image",488.054999994347,"donut.png",1,1,0,"recon_trial","SS6",3,2,"rand","grocery store.png",6,1,"donut.png"
"09/02/2021 23:10:55","09/02/2021 18:11:49",40999,4,3008859,"5fc8095db2180e13362a7b3c","Chrome 88.0.4324.146","final_recon",3,"SS6",53,"Screen 1","response_button_image",3936.85999998706,"jalapeno.png",1,1,0,"recon_trial","SS6",7,2,"rand","grocery store.png",1,2,"jalapeno.png"
"09/02/2021 23:10:56","09/02/2021 18:11:50",40999,4,3008859,"5fc8095db2180e13362a7b3c","Chrome 88.0.4324.146","final_recon",3,"SS6",54,"Screen 1","response_button_image",1369.2849999934,"onion.png",1,0,0,"recon_trial","SS6",7,2,"rand","grocery store.png",2,3,"cabbage.png"
"09/02/2021 23:10:57","09/02/2021 18:11:50",40999,4,3008859,"5fc8095db2180e13362a7b3c","Chrome 88.0.4324.146","final_recon",3,"SS6",55,"Screen 1","response_button_image",343.625000008615,"cabbage.png",1,0,0,"recon_trial","SS6",7,2,"rand","grocery store.png",3,1,"onion.png"
"09/02/2021 23:10:57","09/02/2021 18:11:51",40999,4,3008859,"5fc8095db2180e13362a7b3c","Chrome 88.0.4324.146","final_recon",3,"SS6",56,"Screen 1","response_button_image",716.400000004796,"dragonfruit.png",1,0,0,"recon_trial","SS6",7,2,"rand","grocery store.png",4,4,"artichoke.png"
"09/02/2021 23:10:58","09/02/2021 18:11:52",40999,4,3008859,"5fc8095db2180e13362a7b3c","Chrome 88.0.4324.146","final_recon",3,"SS6",57,"Screen 1","response_button_image",735.734999994747,"artichoke.png",1,0,0,"recon_trial","SS6",7,2,"rand","grocery store.png",5,1,"walnuts.png"
"09/02/2021 23:10:58","09/02/2021 18:11:52",40999,4,3008859,"5fc8095db2180e13362a7b3c","Chrome 88.0.4324.146","final_recon",3,"SS6",58,"Screen 1","response_button_image",316.054999973858,"walnuts.png",1,0,0,"recon_trial","SS6",7,2,"rand","grocery store.png",6,3,"dragonfruit.png"
"09/02/2021 23:11:03","09/02/2021 18:11:57",40999,4,3008859,"5fc8095db2180e13362a7b3c","Chrome 88.0.4324.146","final_recon",3,"SS6",39,"Screen 1","response_button_image",3252.00500001665,"smores.png",1,1,0,"recon_trial","SS6",5,1,"rand","grocery store.png",1,2,"smores.png"
"09/02/2021 23:11:04","09/02/2021 18:11:58",40999,4,3008859,"5fc8095db2180e13362a7b3c","Chrome 88.0.4324.146","final_recon",3,"SS6",40,"Screen 1","response_button_image",944.255000009434,"raspberries.png",1,1,0,"recon_trial","SS6",5,1,"rand","grocery store.png",2,3,"raspberries.png"
"09/02/2021 23:11:05","09/02/2021 18:11:59",40999,4,3008859,"5fc8095db2180e13362a7b3c","Chrome 88.0.4324.146","final_recon",3,"SS6",41,"Screen 1","response_button_image",1322.86000001477,"pomegranate.png",1,1,0,"recon_trial","SS6",5,1,"rand","grocery store.png",3,1,"pomegranate.png"
"09/02/2021 23:11:06","09/02/2021 18:11:59",40999,4,3008859,"5fc8095db2180e13362a7b3c","Chrome 88.0.4324.146","final_recon",3,"SS6",42,"Screen 1","response_button_image",383.679999999003,"carrots.png",1,1,0,"recon_trial","SS6",5,1,"rand","grocery store.png",4,3,"carrots.png"
"09/02/2021 23:11:06","09/02/2021 18:12:00",40999,4,3008859,"5fc8095db2180e13362a7b3c","Chrome 88.0.4324.146","final_recon",3,"SS6",43,"Screen 1","response_button_image",920.450000005076,"peanutbutter.png",1,1,0,"recon_trial","SS6",5,1,"rand","grocery store.png",5,4,"peanutbutter.png"
"09/02/2021 23:11:07","09/02/2021 18:12:01",40999,4,3008859,"5fc8095db2180e13362a7b3c","Chrome 88.0.4324.146","final_recon",3,"SS6",44,"Screen 1","response_button_image",809.750000014901,"muffin.png",1,1,0,"recon_trial","SS6",5,1,"rand","grocery store.png",6,1,"muffin.png"
"09/02/2021 23:11:14","09/02/2021 18:12:08",40999,4,3008859,"5fc8095db2180e13362a7b3c","Chrome 88.0.4324.146","final_recon",3,"SS6",32,"Screen 1","response_button_image",5648.62500000163,"butterfly.png",1,1,0,"recon_trial","SS6",5,3,"pred","pet store.png",1,1,"butterfly.png"
"09/02/2021 23:11:16","09/02/2021 18:12:10",40999,4,3008859,"5fc8095db2180e13362a7b3c","Chrome 88.0.4324.146","final_recon",3,"SS6",33,"Screen 1","response_button_image",2102.01500001131,"chicken.png",1,1,0,"recon_trial","SS6",5,3,"pred","pet store.png",2,4,"chicken.png"
"09/02/2021 23:11:17","09/02/2021 18:12:11",40999,4,3008859,"5fc8095db2180e13362a7b3c","Chrome 88.0.4324.146","final_recon",3,"SS6",34,"Screen 1","response_button_image",887.199999997392,"chameleon.png",1,1,0,"recon_trial","SS6",5,3,"pred","pet store.png",3,3,"chameleon.png"
"09/02/2021 23:11:18","09/02/2021 18:12:12",40999,4,3008859,"5fc8095db2180e13362a7b3c","Chrome 88.0.4324.146","final_recon",3,"SS6",35,"Screen 1","response_button_image",751.799999998184,"hedgehog.png",1,1,0,"recon_trial","SS6",5,3,"pred","pet store.png",4,4,"hedgehog.png"
"09/02/2021 23:11:19","09/02/2021 18:12:12",40999,4,3008859,"5fc8095db2180e13362a7b3c","Chrome 88.0.4324.146","final_recon",3,"SS6",36,"Screen 1","response_button_image",656.500000011874,"rat.png",1,1,0,"recon_trial","SS6",5,3,"pred","pet store.png",5,2,"rat.png"
"09/02/2021 23:11:19","09/02/2021 18:12:13",40999,4,3008859,"5fc8095db2180e13362a7b3c","Chrome 88.0.4324.146","final_recon",3,"SS6",37,"Screen 1","response_button_image",637.940000015078,"crocodile.png",1,1,0,"recon_trial","SS6",5,3,"pred","pet store.png",6,3,"crocodile.png"
"09/02/2021 23:11:21","09/02/2021 18:12:15",40999,4,3008859,"5fc8095db2180e13362a7b3c","Chrome 88.0.4324.146","final_recon",3,"SS6",18,"Screen 1","response_button_image",1326.99499998125,"bear.png",1,1,0,"recon_trial","SS6",3,4,"pred","pet store.png",1,1,"bear.png"
"09/02/2021 23:11:23","09/02/2021 18:12:17",40999,4,3008859,"5fc8095db2180e13362a7b3c","Chrome 88.0.4324.146","final_recon",3,"SS6",19,"Screen 1","response_button_image",1368.09500001254,"rhino.png",1,0,0,"recon_trial","SS6",3,4,"pred","pet store.png",2,4,"beetle.png"
"09/02/2021 23:11:23","09/02/2021 18:12:17",40999,4,3008859,"5fc8095db2180e13362a7b3c","Chrome 88.0.4324.146","final_recon",3,"SS6",20,"Screen 1","response_button_image",385.949999996228,"beetle.png",1,0,0,"recon_trial","SS6",3,4,"pred","pet store.png",3,3,"horse.png"
"09/02/2021 23:11:24","09/02/2021 18:12:18",40999,4,3008859,"5fc8095db2180e13362a7b3c","Chrome 88.0.4324.146","final_recon",3,"SS6",21,"Screen 1","response_button_image",481.885000015609,"horse.png",1,0,0,"recon_trial","SS6",3,4,"pred","pet store.png",4,4,"rhino.png"
"09/02/2021 23:11:24","09/02/2021 18:12:18",40999,4,3008859,"5fc8095db2180e13362a7b3c","Chrome 88.0.4324.146","final_recon",3,"SS6",22,"Screen 1","response_button_image",515.400000003865,"emu.png",1,1,0,"recon_trial","SS6",3,4,"pred","pet store.png",5,2,"emu.png"
"09/02/2021 23:11:25","09/02/2021 18:12:19",40999,4,3008859,"5fc8095db2180e13362a7b3c","Chrome 88.0.4324.146","final_recon",3,"SS6",23,"Screen 1","response_button_image",359.780000027968,"iguana.png",1,1,0,"recon_trial","SS6",3,4,"pred","pet store.png",6,3,"iguana.png"
"09/02/2021 23:11:29","09/02/2021 18:12:23",40999,4,3008859,"5fc8095db2180e13362a7b3c","Chrome 88.0.4324.146","final_recon",3,"SS6",11,"Screen 1","response_button_image",3053.02500000107,"pineapple.png",1,0,0,"recon_trial","SS6",1,3,"rand","grocery store.png",1,4,"fortunecookie.png"
"09/02/2021 23:11:30","09/02/2021 18:12:24",40999,4,3008859,"5fc8095db2180e13362a7b3c","Chrome 88.0.4324.146","final_recon",3,"SS6",12,"Screen 1","response_button_image",1339.26999999676,"guava.png",1,0,0,"recon_trial","SS6",1,3,"rand","grocery store.png",2,3,"pineapple.png"
"09/02/2021 23:11:31","09/02/2021 18:12:24",40999,4,3008859,"5fc8095db2180e13362a7b3c","Chrome 88.0.4324.146","final_recon",3,"SS6",13,"Screen 1","response_button_image",358.405000006314,"pancakes.png",1,0,0,"recon_trial","SS6",1,3,"rand","grocery store.png",3,1,"kiwi.png"
"09/02/2021 23:11:31","09/02/2021 18:12:25",40999,4,3008859,"5fc8095db2180e13362a7b3c","Chrome 88.0.4324.146","final_recon",3,"SS6",14,"Screen 1","response_button_image",533.809999993537,"fortunecookie.png",1,0,0,"recon_trial","SS6",1,3,"rand","grocery store.png",4,2,"pancakes.png"
"09/02/2021 23:11:32","09/02/2021 18:12:26",40999,4,3008859,"5fc8095db2180e13362a7b3c","Chrome 88.0.4324.146","final_recon",3,"SS6",15,"Screen 1","response_button_image",679.015000001527,"kiwi.png",1,0,0,"recon_trial","SS6",1,3,"rand","grocery store.png",5,1,"guava.png"
"09/02/2021 23:11:32","09/02/2021 18:12:26",40999,4,3008859,"5fc8095db2180e13362a7b3c","Chrome 88.0.4324.146","final_recon",3,"SS6",16,"Screen 1","response_button_image",365.569999994477,"burrito.png",1,1,0,"recon_trial","SS6",1,3,"rand","grocery store.png",6,3,"burrito.png"
"10/02/2021 00:07:50","09/02/2021 16:07:50",40999,4,3009659,"5c53c145409f6e0001130a32","Firefox 85.0","final_recon",3,"SS4",32,"Screen 1","response_button_image",3328,"panda.png",1,1,0,"recon_trial","SS4",5,3,"pred","pet store.png",1,3,"panda.png"
"10/02/2021 00:07:52","09/02/2021 16:07:52",40999,4,3009659,"5c53c145409f6e0001130a32","Firefox 85.0","final_recon",3,"SS4",33,"Screen 1","response_button_image",1607,"squirrel.png",1,1,0,"recon_trial","SS4",5,3,"pred","pet store.png",2,2,"squirrel.png"
"10/02/2021 00:07:52","09/02/2021 16:07:53",40999,4,3009659,"5c53c145409f6e0001130a32","Firefox 85.0","final_recon",3,"SS4",34,"Screen 1","response_button_image",799,"horse.png",1,0,0,"recon_trial","SS4",5,3,"pred","pet store.png",3,4,"beetle.png"
"10/02/2021 00:07:53","09/02/2021 16:07:53",40999,4,3009659,"5c53c145409f6e0001130a32","Firefox 85.0","final_recon",3,"SS4",35,"Screen 1","response_button_image",573,"walrus.png",1,1,0,"recon_trial","SS4",5,3,"pred","pet store.png",4,2,"walrus.png"
"10/02/2021 00:07:54","09/02/2021 16:07:54",40999,4,3009659,"5c53c145409f6e0001130a32","Firefox 85.0","final_recon",3,"SS4",36,"Screen 1","response_button_image",606,"donkey.png",1,1,0,"recon_trial","SS4",5,3,"pred","pet store.png",5,1,"donkey.png"
"10/02/2021 00:07:55","09/02/2021 16:07:55",40999,4,3009659,"5c53c145409f6e0001130a32","Firefox 85.0","final_recon",3,"SS4",37,"Screen 1","response_button_image",1684,"beetle.png",1,0,0,"recon_trial","SS4",5,3,"pred","pet store.png",6,4,"horse.png"
"10/02/2021 00:08:00","09/02/2021 16:08:00",40999,4,3009659,"5c53c145409f6e0001130a32","Firefox 85.0","final_recon",3,"SS4",18,"Screen 1","response_button_image",3012,"stingray.png",1,0,0,"recon_trial","SS4",3,2,"pred","pet store.png",1,3,"caterpillar.png"
"10/02/2021 00:08:00","09/02/2021 16:08:00",40999,4,3009659,"5c53c145409f6e0001130a32","Firefox 85.0","final_recon",3,"SS4",19,"Screen 1","response_button_image",579,"ostrich.png",1,0,0,"recon_trial","SS4",3,2,"pred","pet store.png",2,2,"stingray.png"
"10/02/2021 00:08:01","09/02/2021 16:08:01",40999,4,3009659,"5c53c145409f6e0001130a32","Firefox 85.0","final_recon",3,"SS4",20,"Screen 1","response_button_image",726,"camel.png",1,0,0,"recon_trial","SS4",3,2,"pred","pet store.png",3,4,"lemur.png"
"10/02/2021 00:08:02","09/02/2021 16:08:02",40999,4,3009659,"5c53c145409f6e0001130a32","Firefox 85.0","final_recon",3,"SS4",21,"Screen 1","response_button_image",1018,"lemur.png",1,0,0,"recon_trial","SS4",3,2,"pred","pet store.png",4,2,"camel.png"
"10/02/2021 00:08:03","09/02/2021 16:08:03",40999,4,3009659,"5c53c145409f6e0001130a32","Firefox 85.0","final_recon",3,"SS4",22,"Screen 1","response_button_image",829,"caterpillar.png",1,0,0,"recon_trial","SS4",3,2,"pred","pet store.png",5,1,"ostrich.png"
"10/02/2021 00:08:04","09/02/2021 16:08:04",40999,4,3009659,"5c53c145409f6e0001130a32","Firefox 85.0","final_recon",3,"SS4",23,"Screen 1","response_button_image",1148,"goat.png",1,1,0,"recon_trial","SS4",3,2,"pred","pet store.png",6,4,"goat.png"
"10/02/2021 00:08:09","09/02/2021 16:08:09",40999,4,3009659,"5c53c145409f6e0001130a32","Firefox 85.0","final_recon",3,"SS4",53,"Screen 1","response_button_image",3574,"asparagus.png",1,1,0,"recon_trial","SS4",7,2,"rand","grocery store.png",1,2,"asparagus.png"
"10/02/2021 00:08:09","09/02/2021 16:08:09",40999,4,3009659,"5c53c145409f6e0001130a32","Firefox 85.0","final_recon",3,"SS4",54,"Screen 1","response_button_image",529,"beet.png",1,0,0,"recon_trial","SS4",7,2,"rand","grocery store.png",2,1,"salad.png"
"10/02/2021 00:08:10","09/02/2021 16:08:10",40999,4,3009659,"5c53c145409f6e0001130a32","Firefox 85.0","final_recon",3,"SS4",55,"Screen 1","response_button_image",482,"lemon.png",1,0,0,"recon_trial","SS4",7,2,"rand","grocery store.png",3,3,"beet.png"
"10/02/2021 00:08:10","09/02/2021 16:08:11",40999,4,3009659,"5c53c145409f6e0001130a32","Firefox 85.0","final_recon",3,"SS4",56,"Screen 1","response_button_image",811,"salad.png",1,0,0,"recon_trial","SS4",7,2,"rand","grocery store.png",4,4,"lemon.png"
"10/02/2021 00:08:11","09/02/2021 16:08:11",40999,4,3009659,"5c53c145409f6e0001130a32","Firefox 85.0","final_recon",3,"SS4",57,"Screen 1","response_button_image",816,"peaches.png",1,0,0,"recon_trial","SS4",7,2,"rand","grocery store.png",5,1,"seaweed.png"
"10/02/2021 00:08:12","09/02/2021 16:08:12",40999,4,3009659,"5c53c145409f6e0001130a32","Firefox 85.0","final_recon",3,"SS4",58,"Screen 1","response_button_image",287,"seaweed.png",1,0,0,"recon_trial","SS4",7,2,"rand","grocery store.png",6,4,"peaches.png"
"10/02/2021 00:08:15","09/02/2021 16:08:15",40999,4,3009659,"5c53c145409f6e0001130a32","Firefox 85.0","final_recon",3,"SS4",39,"Screen 1","response_button_image",2417,"cheese.png",1,0,0,"recon_trial","SS4",5,4,"rand","grocery store.png",1,4,"jalapeno.png"
"10/02/2021 00:08:16","09/02/2021 16:08:16",40999,4,3009659,"5c53c145409f6e0001130a32","Firefox 85.0","final_recon",3,"SS4",40,"Screen 1","response_button_image",900,"potatochips.png",1,1,0,"recon_trial","SS4",5,4,"rand","grocery store.png",2,3,"potatochips.png"
"10/02/2021 00:08:17","09/02/2021 16:08:17",40999,4,3009659,"5c53c145409f6e0001130a32","Firefox 85.0","final_recon",3,"SS4",41,"Screen 1","response_button_image",856,"apple.png",1,0,0,"recon_trial","SS4",5,4,"rand","grocery store.png",3,1,"cheese.png"
"10/02/2021 00:08:17","09/02/2021 16:08:17",40999,4,3009659,"5c53c145409f6e0001130a32","Firefox 85.0","final_recon",3,"SS4",42,"Screen 1","response_button_image",296,"popcornshrimp.png",1,0,0,"recon_trial","SS4",5,4,"rand","grocery store.png",4,2,"apple.png"
"10/02/2021 00:08:18","09/02/2021 16:08:18",40999,4,3009659,"5c53c145409f6e0001130a32","Firefox 85.0","final_recon",3,"SS4",43,"Screen 1","response_button_image",778,"edamame.png",1,1,0,"recon_trial","SS4",5,4,"rand","grocery store.png",5,1,"edamame.png"
"10/02/2021 00:08:19","09/02/2021 16:08:19",40999,4,3009659,"5c53c145409f6e0001130a32","Firefox 85.0","final_recon",3,"SS4",44,"Screen 1","response_button_image",990,"jalapeno.png",1,0,0,"recon_trial","SS4",5,4,"rand","grocery store.png",6,3,"popcornshrimp.png"
"10/02/2021 00:08:23","09/02/2021 16:08:23",40999,4,3009659,"5c53c145409f6e0001130a32","Firefox 85.0","final_recon",3,"SS4",46,"Screen 1","response_button_image",2531,"lion.png",1,0,0,"recon_trial","SS4",7,1,"pred","pet store.png",1,3,"chicken.png"
"10/02/2021 00:08:24","09/02/2021 16:08:24",40999,4,3009659,"5c53c145409f6e0001130a32","Firefox 85.0","final_recon",3,"SS4",47,"Screen 1","response_button_image",1028,"octopus.png",1,0,0,"recon_trial","SS4",7,1,"pred","pet store.png",2,2,"badger.png"
"10/02/2021 00:08:25","09/02/2021 16:08:25",40999,4,3009659,"5c53c145409f6e0001130a32","Firefox 85.0","final_recon",3,"SS4",48,"Screen 1","response_button_image",1136,"toucan.png",1,0,0,"recon_trial","SS4",7,1,"pred","pet store.png",3,4,"octopus.png"
"10/02/2021 00:08:25","09/02/2021 16:08:25",40999,4,3009659,"5c53c145409f6e0001130a32","Firefox 85.0","final_recon",3,"SS4",49,"Screen 1","response_button_image",525,"grasshopper.png",1,0,0,"recon_trial","SS4",7,1,"pred","pet store.png",4,2,"toucan.png"
"10/02/2021 00:08:26","09/02/2021 16:08:26",40999,4,3009659,"5c53c145409f6e0001130a32","Firefox 85.0","final_recon",3,"SS4",50,"Screen 1","response_button_image",427,"lion.png",1,1,0,"recon_trial","SS4",7,1,"pred","pet store.png",5,1,"lion.png"
"10/02/2021 00:08:27","09/02/2021 16:08:27",40999,4,3009659,"5c53c145409f6e0001130a32","Firefox 85.0","final_recon",3,"SS4",51,"Screen 1","response_button_image",1218,"badger.png",1,0,0,"recon_trial","SS4",7,1,"pred","pet store.png",6,4,"grasshopper.png"
"10/02/2021 00:08:30","09/02/2021 16:08:30",40999,4,3009659,"5c53c145409f6e0001130a32","Firefox 85.0","final_recon",3,"SS4",4,"Screen 1","response_button_image",2281,"boar.png",1,1,0,"recon_trial","SS4",1,2,"pred","pet store.png",1,3,"boar.png"
"10/02/2021 00:08:32","09/02/2021 16:08:32",40999,4,3009659,"5c53c145409f6e0001130a32","Firefox 85.0","final_recon",3,"SS4",5,"Screen 1","response_button_image",1137,"crab.png",1,1,0,"recon_trial","SS4",1,2,"pred","pet store.png",2,2,"crab.png"
"10/02/2021 00:08:34","09/02/2021 16:08:34",40999,4,3009659,"5c53c145409f6e0001130a32","Firefox 85.0","final_recon",3,"SS4",6,"Screen 1","response_button_image",2069,"chameleon.png",1,1,0,"recon_trial","SS4",1,2,"pred","pet store.png",3,4,"chameleon.png"
"10/02/2021 00:08:35","09/02/2021 16:08:35",40999,4,3009659,"5c53c145409f6e0001130a32","Firefox 85.0","final_recon",3,"SS4",7,"Screen 1","response_button_image",925,"wolf.png",1,1,0,"recon_trial","SS4",1,2,"pred","pet store.png",4,2,"wolf.png"
"10/02/2021 00:08:35","09/02/2021 16:08:35",40999,4,3009659,"5c53c145409f6e0001130a32","Firefox 85.0","final_recon",3,"SS4",8,"Screen 1","response_button_image",742,"ladybug.png",1,1,0,"recon_trial","SS4",1,2,"pred","pet store.png",5,1,"ladybug.png"
"10/02/2021 00:08:36","09/02/2021 16:08:36",40999,4,3009659,"5c53c145409f6e0001130a32","Firefox 85.0","final_recon",3,"SS4",9,"Screen 1","response_button_image",595,"frog.png",1,1,0,"recon_trial","SS4",1,2,"pred","pet store.png",6,4,"frog.png"
"10/02/2021 00:08:40","09/02/2021 16:08:40",40999,4,3009659,"5c53c145409f6e0001130a32","Firefox 85.0","final_recon",3,"SS4",25,"Screen 1","response_button_image",2646,"croissant.png",1,0,0,"recon_trial","SS4",3,4,"rand","grocery store.png",1,2,"carrots.png"
"10/02/2021 00:08:41","09/02/2021 16:08:41",40999,4,3009659,"5c53c145409f6e0001130a32","Firefox 85.0","final_recon",3,"SS4",26,"Screen 1","response_button_image",1122,"carrots.png",1,0,0,"recon_trial","SS4",3,4,"rand","grocery store.png",2,4,"mustard.png"
"10/02/2021 00:08:42","09/02/2021 16:08:42",40999,4,3009659,"5c53c145409f6e0001130a32","Firefox 85.0","final_recon",3,"SS4",27,"Screen 1","response_button_image",803,"mushrooms.png",1,0,0,"recon_trial","SS4",3,4,"rand","grocery store.png",3,3,"croissant.png"
"10/02/2021 00:08:42","09/02/2021 16:08:42",40999,4,3009659,"5c53c145409f6e0001130a32","Firefox 85.0","final_recon",3,"SS4",28,"Screen 1","response_button_image",459,"coconut.png",1,1,0,"recon_trial","SS4",3,4,"rand","grocery store.png",4,1,"coconut.png"
"10/02/2021 00:08:43","09/02/2021 16:08:43",40999,4,3009659,"5c53c145409f6e0001130a32","Firefox 85.0","final_recon",3,"SS4",29,"Screen 1","response_button_image",394,"mustard.png",1,0,0,"recon_trial","SS4",3,4,"rand","grocery store.png",5,4,"mushrooms.png"
"10/02/2021 00:08:43","09/02/2021 16:08:43",40999,4,3009659,"5c53c145409f6e0001130a32","Firefox 85.0","final_recon",3,"SS4",30,"Screen 1","response_button_image",718,"grapes.png",1,1,0,"recon_trial","SS4",3,4,"rand","grocery store.png",6,1,"grapes.png"
"10/02/2021 00:08:47","09/02/2021 16:08:47",40999,4,3009659,"5c53c145409f6e0001130a32","Firefox 85.0","final_recon",3,"SS4",11,"Screen 1","response_button_image",2353,"pork.png",1,1,0,"recon_trial","SS4",1,1,"rand","grocery store.png",1,2,"pork.png"
"10/02/2021 00:08:48","09/02/2021 16:08:48",40999,4,3009659,"5c53c145409f6e0001130a32","Firefox 85.0","final_recon",3,"SS4",12,"Screen 1","response_button_image",794,"gummybears.png",1,1,0,"recon_trial","SS4",1,1,"rand","grocery store.png",2,1,"gummybears.png"
"10/02/2021 00:08:48","09/02/2021 16:08:48",40999,4,3009659,"5c53c145409f6e0001130a32","Firefox 85.0","final_recon",3,"SS4",13,"Screen 1","response_button_image",787,"burrito.png",1,1,0,"recon_trial","SS4",1,1,"rand","grocery store.png",3,4,"burrito.png"
"10/02/2021 00:08:49","09/02/2021 16:08:49",40999,4,3009659,"5c53c145409f6e0001130a32","Firefox 85.0","final_recon",3,"SS4",14,"Screen 1","response_button_image",713,"kiwi.png",1,0,0,"recon_trial","SS4",1,1,"rand","grocery store.png",4,3,"burger.png"
"10/02/2021 00:08:50","09/02/2021 16:08:50",40999,4,3009659,"5c53c145409f6e0001130a32","Firefox 85.0","final_recon",3,"SS4",15,"Screen 1","response_button_image",704,"burger.png",1,0,0,"recon_trial","SS4",1,1,"rand","grocery store.png",5,1,"watermelon.png"
"10/02/2021 00:08:51","09/02/2021 16:08:51",40999,4,3009659,"5c53c145409f6e0001130a32","Firefox 85.0","final_recon",3,"SS4",16,"Screen 1","response_button_image",706,"watermelon.png",1,0,0,"recon_trial","SS4",1,1,"rand","grocery store.png",6,3,"kiwi.png"
"10/02/2021 00:08:01","09/02/2021 19:08:01",40999,4,3009667,"5b60ddcc6b25590001782ce4","Chrome 88.0.4324.104","final_recon",3,"SS6",11,"Screen 1","response_button_image",2975.43500002939,"fortunecookie.png",1,1,0,"recon_trial","SS6",1,3,"rand","grocery store.png",1,4,"fortunecookie.png"
"10/02/2021 00:08:04","09/02/2021 19:08:04",40999,4,3009667,"5b60ddcc6b25590001782ce4","Chrome 88.0.4324.104","final_recon",3,"SS6",12,"Screen 1","response_button_image",3108.42499998398,"guava.png",1,0,0,"recon_trial","SS6",1,3,"rand","grocery store.png",2,3,"pineapple.png"
"10/02/2021 00:08:05","09/02/2021 19:08:05",40999,4,3009667,"5b60ddcc6b25590001782ce4","Chrome 88.0.4324.104","final_recon",3,"SS6",13,"Screen 1","response_button_image",1165.81000003498,"pineapple.png",1,0,0,"recon_trial","SS6",1,3,"rand","grocery store.png",3,1,"kiwi.png"
"10/02/2021 00:08:06","09/02/2021 19:08:06",40999,4,3009667,"5b60ddcc6b25590001782ce4","Chrome 88.0.4324.104","final_recon",3,"SS6",14,"Screen 1","response_button_image",689.690000028349,"burrito.png",1,0,0,"recon_trial","SS6",1,3,"rand","grocery store.png",4,2,"pancakes.png"
"10/02/2021 00:08:07","09/02/2021 19:08:07",40999,4,3009667,"5b60ddcc6b25590001782ce4","Chrome 88.0.4324.104","final_recon",3,"SS6",15,"Screen 1","response_button_image",767.360000056215,"pancakes.png",1,0,0,"recon_trial","SS6",1,3,"rand","grocery store.png",5,1,"guava.png"
"10/02/2021 00:08:07","09/02/2021 19:08:07",40999,4,3009667,"5b60ddcc6b25590001782ce4","Chrome 88.0.4324.104","final_recon",3,"SS6",16,"Screen 1","response_button_image",511.685000034049,"kiwi.png",1,0,0,"recon_trial","SS6",1,3,"rand","grocery store.png",6,3,"burrito.png"
"10/02/2021 00:08:10","09/02/2021 19:08:10",40999,4,3009667,"5b60ddcc6b25590001782ce4","Chrome 88.0.4324.104","final_recon",3,"SS6",46,"Screen 1","response_button_image",1413.37499988731,"cuttlefish.png",1,1,0,"recon_trial","SS6",7,1,"pred","pet store.png",1,1,"cuttlefish.png"
"10/02/2021 00:08:12","09/02/2021 19:08:12",40999,4,3009667,"5b60ddcc6b25590001782ce4","Chrome 88.0.4324.104","final_recon",3,"SS6",47,"Screen 1","response_button_image",2393.95499997772,"dragonfly.png",1,0,0,"recon_trial","SS6",7,1,"pred","pet store.png",2,4,"hammerheadshark.png"
"10/02/2021 00:08:13","09/02/2021 19:08:13",40999,4,3009667,"5b60ddcc6b25590001782ce4","Chrome 88.0.4324.104","final_recon",3,"SS6",48,"Screen 1","response_button_image",1284.63500004727,"hammerheadshark.png",1,0,0,"recon_trial","SS6",7,1,"pred","pet store.png",3,3,"ladybug.png"
"10/02/2021 00:08:14","09/02/2021 19:08:14",40999,4,3009667,"5b60ddcc6b25590001782ce4","Chrome 88.0.4324.104","final_recon",3,"SS6",49,"Screen 1","response_button_image",670.8599999547,"ladybug.png",1,0,0,"recon_trial","SS6",7,1,"pred","pet store.png",4,4,"dragonfly.png"
"10/02/2021 00:08:15","09/02/2021 19:08:15",40999,4,3009667,"5b60ddcc6b25590001782ce4","Chrome 88.0.4324.104","final_recon",3,"SS6",50,"Screen 1","response_button_image",950.095000094734,"deer.png",1,0,0,"recon_trial","SS6",7,1,"pred","pet store.png",5,2,"pig.png"
"10/02/2021 00:08:15","09/02/2021 19:08:15",40999,4,3009667,"5b60ddcc6b25590001782ce4","Chrome 88.0.4324.104","final_recon",3,"SS6",51,"Screen 1","response_button_image",229.015000048093,"pig.png",1,0,0,"recon_trial","SS6",7,1,"pred","pet store.png",6,3,"deer.png"
"10/02/2021 00:08:19","09/02/2021 19:08:19",40999,4,3009667,"5b60ddcc6b25590001782ce4","Chrome 88.0.4324.104","final_recon",3,"SS6",4,"Screen 1","response_button_image",2414.75500003435,"hummingbird.png",1,1,0,"recon_trial","SS6",1,4,"pred","pet store.png",1,1,"hummingbird.png"
"10/02/2021 00:08:21","09/02/2021 19:08:20",40999,4,3009667,"5b60ddcc6b25590001782ce4","Chrome 88.0.4324.104","final_recon",3,"SS6",5,"Screen 1","response_button_image",1936.69500004034,"fox.png",1,1,0,"recon_trial","SS6",1,4,"pred","pet store.png",2,4,"fox.png"
"10/02/2021 00:08:22","09/02/2021 19:08:21",40999,4,3009667,"5b60ddcc6b25590001782ce4","Chrome 88.0.4324.104","final_recon",3,"SS6",6,"Screen 1","response_button_image",910.410000011325,"shark.png",1,0,0,"recon_trial","SS6",1,4,"pred","pet store.png",3,3,"whale.png"
"10/02/2021 00:08:22","09/02/2021 19:08:22",40999,4,3009667,"5b60ddcc6b25590001782ce4","Chrome 88.0.4324.104","final_recon",3,"SS6",7,"Screen 1","response_button_image",945.120000047609,"hippo.png",1,0,0,"recon_trial","SS6",1,4,"pred","pet store.png",4,4,"goose.png"
"10/02/2021 00:08:23","09/02/2021 19:08:23",40999,4,3009667,"5b60ddcc6b25590001782ce4","Chrome 88.0.4324.104","final_recon",3,"SS6",8,"Screen 1","response_button_image",432.410000008531,"goose.png",1,0,0,"recon_trial","SS6",1,4,"pred","pet store.png",5,2,"hippo.png"
"10/02/2021 00:08:23","09/02/2021 19:08:23",40999,4,3009667,"5b60ddcc6b25590001782ce4","Chrome 88.0.4324.104","final_recon",3,"SS6",9,"Screen 1","response_button_image",524.574999930337,"whale.png",1,0,0,"recon_trial","SS6",1,4,"pred","pet store.png",6,3,"shark.png"
"10/02/2021 00:08:28","09/02/2021 19:08:27",40999,4,3009667,"5b60ddcc6b25590001782ce4","Chrome 88.0.4324.104","final_recon",3,"SS6",53,"Screen 1","response_button_image",3074.39500000328,"jalapeno.png",1,1,0,"recon_trial","SS6",7,2,"rand","grocery store.png",1,2,"jalapeno.png"
"10/02/2021 00:08:28","09/02/2021 19:08:28",40999,4,3009667,"5b60ddcc6b25590001782ce4","Chrome 88.0.4324.104","final_recon",3,"SS6",54,"Screen 1","response_button_image",726.550000021234,"cabbage.png",1,1,0,"recon_trial","SS6",7,2,"rand","grocery store.png",2,3,"cabbage.png"
"10/02/2021 00:08:29","09/02/2021 19:08:29",40999,4,3009667,"5b60ddcc6b25590001782ce4","Chrome 88.0.4324.104","final_recon",3,"SS6",55,"Screen 1","response_button_image",609.880000003614,"dragonfruit.png",1,0,0,"recon_trial","SS6",7,2,"rand","grocery store.png",3,1,"onion.png"
"10/02/2021 00:08:30","09/02/2021 19:08:30",40999,4,3009667,"5b60ddcc6b25590001782ce4","Chrome 88.0.4324.104","final_recon",3,"SS6",56,"Screen 1","response_button_image",786.785000003874,"artichoke.png",1,1,0,"recon_trial","SS6",7,2,"rand","grocery store.png",4,4,"artichoke.png"
"10/02/2021 00:08:30","09/02/2021 19:08:30",40999,4,3009667,"5b60ddcc6b25590001782ce4","Chrome 88.0.4324.104","final_recon",3,"SS6",57,"Screen 1","response_button_image",201.575000071898,"walnuts.png",1,1,0,"recon_trial","SS6",7,2,"rand","grocery store.png",5,1,"walnuts.png"
"10/02/2021 00:08:30","09/02/2021 19:08:30",40999,4,3009667,"5b60ddcc6b25590001782ce4","Chrome 88.0.4324.104","final_recon",3,"SS6",58,"Screen 1","response_button_image",360.974999959581,"onion.png",1,0,0,"recon_trial","SS6",7,2,"rand","grocery store.png",6,3,"dragonfruit.png"
"10/02/2021 00:08:33","09/02/2021 19:08:33",40999,4,3009667,"5b60ddcc6b25590001782ce4","Chrome 88.0.4324.104","final_recon",3,"SS6",39,"Screen 1","response_button_image",2160.22499999963,"smores.png",1,1,0,"recon_trial","SS6",5,1,"rand","grocery store.png",1,2,"smores.png"
"10/02/2021 00:08:35","09/02/2021 19:08:35",40999,4,3009667,"5b60ddcc6b25590001782ce4","Chrome 88.0.4324.104","final_recon",3,"SS6",40,"Screen 1","response_button_image",1584.32999998331,"peanutbutter.png",1,0,0,"recon_trial","SS6",5,1,"rand","grocery store.png",2,3,"raspberries.png"
"10/02/2021 00:08:36","09/02/2021 19:08:36",40999,4,3009667,"5b60ddcc6b25590001782ce4","Chrome 88.0.4324.104","final_recon",3,"SS6",41,"Screen 1","response_button_image",922.075000009499,"pomegranate.png",1,1,0,"recon_trial","SS6",5,1,"rand","grocery store.png",3,1,"pomegranate.png"
"10/02/2021 00:08:36","09/02/2021 19:08:36",40999,4,3009667,"5b60ddcc6b25590001782ce4","Chrome 88.0.4324.104","final_recon",3,"SS6",42,"Screen 1","response_button_image",496.56999995932,"raspberries.png",1,0,0,"recon_trial","SS6",5,1,"rand","grocery store.png",4,3,"carrots.png"
"10/02/2021 00:08:37","09/02/2021 19:08:37",40999,4,3009667,"5b60ddcc6b25590001782ce4","Chrome 88.0.4324.104","final_recon",3,"SS6",43,"Screen 1","response_button_image",351.844999939203,"carrots.png",1,0,0,"recon_trial","SS6",5,1,"rand","grocery store.png",5,4,"peanutbutter.png"
"10/02/2021 00:08:37","09/02/2021 19:08:37",40999,4,3009667,"5b60ddcc6b25590001782ce4","Chrome 88.0.4324.104","final_recon",3,"SS6",44,"Screen 1","response_button_image",382.555000018328,"muffin.png",1,1,0,"recon_trial","SS6",5,1,"rand","grocery store.png",6,1,"muffin.png"
"10/02/2021 00:08:41","09/02/2021 19:08:41",40999,4,3009667,"5b60ddcc6b25590001782ce4","Chrome 88.0.4324.104","final_recon",3,"SS6",32,"Screen 1","response_button_image",2751.44999998156,"butterfly.png",1,1,0,"recon_trial","SS6",5,3,"pred","pet store.png",1,1,"butterfly.png"
"10/02/2021 00:08:42","09/02/2021 19:08:42",40999,4,3009667,"5b60ddcc6b25590001782ce4","Chrome 88.0.4324.104","final_recon",3,"SS6",33,"Screen 1","response_button_image",741.715000011027,"rat.png",1,0,0,"recon_trial","SS6",5,3,"pred","pet store.png",2,4,"chicken.png"
"10/02/2021 00:08:42","09/02/2021 19:08:42",40999,4,3009667,"5b60ddcc6b25590001782ce4","Chrome 88.0.4324.104","final_recon",3,"SS6",34,"Screen 1","response_button_image",489.754999987781,"hedgehog.png",1,0,0,"recon_trial","SS6",5,3,"pred","pet store.png",3,3,"chameleon.png"
"10/02/2021 00:08:43","09/02/2021 19:08:42",40999,4,3009667,"5b60ddcc6b25590001782ce4","Chrome 88.0.4324.104","final_recon",3,"SS6",35,"Screen 1","response_button_image",272.269999957643,"crocodile.png",1,0,0,"recon_trial","SS6",5,3,"pred","pet store.png",4,4,"hedgehog.png"
"10/02/2021 00:08:43","09/02/2021 19:08:43",40999,4,3009667,"5b60ddcc6b25590001782ce4","Chrome 88.0.4324.104","final_recon",3,"SS6",36,"Screen 1","response_button_image",270.264999940991,"chameleon.png",1,0,0,"recon_trial","SS6",5,3,"pred","pet store.png",5,2,"rat.png"
"10/02/2021 00:08:43","09/02/2021 19:08:43",40999,4,3009667,"5b60ddcc6b25590001782ce4","Chrome 88.0.4324.104","final_recon",3,"SS6",37,"Screen 1","response_button_image",309.239999973215,"chicken.png",1,0,0,"recon_trial","SS6",5,3,"pred","pet store.png",6,3,"crocodile.png"
"10/02/2021 00:08:45","09/02/2021 19:08:45",40999,4,3009667,"5b60ddcc6b25590001782ce4","Chrome 88.0.4324.104","final_recon",3,"SS6",25,"Screen 1","response_button_image",1287.57499996573,"cake.png",1,1,0,"recon_trial","SS6",3,2,"rand","grocery store.png",1,3,"cake.png"
"10/02/2021 00:08:47","09/02/2021 19:08:47",40999,4,3009667,"5b60ddcc6b25590001782ce4","Chrome 88.0.4324.104","final_recon",3,"SS6",26,"Screen 1","response_button_image",1230.4099999601,"donut.png",1,0,0,"recon_trial","SS6",3,2,"rand","grocery store.png",2,4,"potatochips.png"
"10/02/2021 00:08:47","09/02/2021 19:08:47",40999,4,3009667,"5b60ddcc6b25590001782ce4","Chrome 88.0.4324.104","final_recon",3,"SS6",27,"Screen 1","response_button_image",695.335000054911,"hotdog.png",1,0,0,"recon_trial","SS6",3,2,"rand","grocery store.png",3,2,"nachos.png"
"10/02/2021 00:08:48","09/02/2021 19:08:48",40999,4,3009667,"5b60ddcc6b25590001782ce4","Chrome 88.0.4324.104","final_recon",3,"SS6",28,"Screen 1","response_button_image",461.595000000671,"nachos.png",1,0,0,"recon_trial","SS6",3,2,"rand","grocery store.png",4,1,"hotdog.png"
"10/02/2021 00:08:48","09/02/2021 19:08:48",40999,4,3009667,"5b60ddcc6b25590001782ce4","Chrome 88.0.4324.104","final_recon",3,"SS6",29,"Screen 1","response_button_image",241.219999967143,"potatochips.png",1,0,0,"recon_trial","SS6",3,2,"rand","grocery store.png",5,4,"croissant.png"
"10/02/2021 00:08:48","09/02/2021 19:08:48",40999,4,3009667,"5b60ddcc6b25590001782ce4","Chrome 88.0.4324.104","final_recon",3,"SS6",30,"Screen 1","response_button_image",304.204999934882,"croissant.png",1,0,0,"recon_trial","SS6",3,2,"rand","grocery store.png",6,1,"donut.png"
"10/02/2021 00:08:55","09/02/2021 19:08:55",40999,4,3009667,"5b60ddcc6b25590001782ce4","Chrome 88.0.4324.104","final_recon",3,"SS6",18,"Screen 1","response_button_image",4762.13500008453,"bear.png",1,1,0,"recon_trial","SS6",3,4,"pred","pet store.png",1,1,"bear.png"
"10/02/2021 00:08:56","09/02/2021 19:08:56",40999,4,3009667,"5b60ddcc6b25590001782ce4","Chrome 88.0.4324.104","final_recon",3,"SS6",19,"Screen 1","response_button_image",491.150000016205,"beetle.png",1,1,0,"recon_trial","SS6",3,4,"pred","pet store.png",2,4,"beetle.png"
"10/02/2021 00:08:56","09/02/2021 19:08:56",40999,4,3009667,"5b60ddcc6b25590001782ce4","Chrome 88.0.4324.104","final_recon",3,"SS6",20,"Screen 1","response_button_image",554.72999997437,"horse.png",1,1,0,"recon_trial","SS6",3,4,"pred","pet store.png",3,3,"horse.png"
"10/02/2021 00:08:57","09/02/2021 19:08:57",40999,4,3009667,"5b60ddcc6b25590001782ce4","Chrome 88.0.4324.104","final_recon",3,"SS6",21,"Screen 1","response_button_image",305.365000036545,"rhino.png",1,1,0,"recon_trial","SS6",3,4,"pred","pet store.png",4,4,"rhino.png"
"10/02/2021 00:08:57","09/02/2021 19:08:57",40999,4,3009667,"5b60ddcc6b25590001782ce4","Chrome 88.0.4324.104","final_recon",3,"SS6",22,"Screen 1","response_button_image",348.530000075698,"emu.png",1,1,0,"recon_trial","SS6",3,4,"pred","pet store.png",5,2,"emu.png"
"10/02/2021 00:08:57","09/02/2021 19:08:57",40999,4,3009667,"5b60ddcc6b25590001782ce4","Chrome 88.0.4324.104","final_recon",3,"SS6",23,"Screen 1","response_button_image",260.015000007115,"iguana.png",1,1,0,"recon_trial","SS6",3,4,"pred","pet store.png",6,3,"iguana.png"
"10/02/2021 00:11:10","09/02/2021 19:11:10",40999,4,3009674,"600b6e24048ccd12de29dc5f","Chrome 88.0.4324.146","final_recon",3,"SS5",46,"Screen 1","response_button_image",3549.88000000594,"cinnamon.png",1,0,0,"recon_trial","SS5",7,3,"pred","grocery store.png",1,1,"bakedpotato.png"
"10/02/2021 00:11:11","09/02/2021 19:11:11",40999,4,3009674,"600b6e24048ccd12de29dc5f","Chrome 88.0.4324.146","final_recon",3,"SS5",47,"Screen 1","response_button_image",1159.29999999935,"chocolate.png",1,0,0,"recon_trial","SS5",7,3,"pred","grocery store.png",2,4,"cinnamon.png"
"10/02/2021 00:11:12","09/02/2021 19:11:12",40999,4,3009674,"600b6e24048ccd12de29dc5f","Chrome 88.0.4324.146","final_recon",3,"SS5",48,"Screen 1","response_button_image",748.20999999065,"pork.png",1,0,0,"recon_trial","SS5",7,3,"pred","grocery store.png",3,3,"chocolate.png"
"10/02/2021 00:11:13","09/02/2021 19:11:12",40999,4,3009674,"600b6e24048ccd12de29dc5f","Chrome 88.0.4324.146","final_recon",3,"SS5",49,"Screen 1","response_button_image",537.540000048466,"cherries.png",1,0,0,"recon_trial","SS5",7,3,"pred","grocery store.png",4,4,"artichoke.png"
"10/02/2021 00:11:13","09/02/2021 19:11:13",40999,4,3009674,"600b6e24048ccd12de29dc5f","Chrome 88.0.4324.146","final_recon",3,"SS5",50,"Screen 1","response_button_image",524.595000024419,"artichoke.png",1,0,0,"recon_trial","SS5",7,3,"pred","grocery store.png",5,2,"cherries.png"
"10/02/2021 00:11:13","09/02/2021 19:11:13",40999,4,3009674,"600b6e24048ccd12de29dc5f","Chrome 88.0.4324.146","final_recon",3,"SS5",51,"Screen 1","response_button_image",505.160000000615,"bakedpotato.png",1,0,0,"recon_trial","SS5",7,3,"pred","grocery store.png",6,3,"pork.png"
"10/02/2021 00:11:16","09/02/2021 19:11:16",40999,4,3009674,"600b6e24048ccd12de29dc5f","Chrome 88.0.4324.146","final_recon",3,"SS5",39,"Screen 1","response_button_image",1563.23500000872,"cuttlefish.png",1,0,0,"recon_trial","SS5",5,4,"rand","pet store.png",1,3,"hermitcrab.png"
"10/02/2021 00:11:17","09/02/2021 19:11:17",40999,4,3009674,"600b6e24048ccd12de29dc5f","Chrome 88.0.4324.146","final_recon",3,"SS5",40,"Screen 1","response_button_image",679.349999991246,"cow.png",1,0,0,"recon_trial","SS5",5,4,"rand","pet store.png",2,4,"bloodhound.png"
"10/02/2021 00:11:17","09/02/2021 19:11:17",40999,4,3009674,"600b6e24048ccd12de29dc5f","Chrome 88.0.4324.146","final_recon",3,"SS5",41,"Screen 1","response_button_image",399.655000015628,"rhino.png",1,0,0,"recon_trial","SS5",5,4,"rand","pet store.png",3,2,"cuttlefish.png"
"10/02/2021 00:11:18","09/02/2021 19:11:18",40999,4,3009674,"600b6e24048ccd12de29dc5f","Chrome 88.0.4324.146","final_recon",3,"SS5",42,"Screen 1","response_button_image",760.690000024624,"bloodhound.png",1,0,0,"recon_trial","SS5",5,4,"rand","pet store.png",4,1,"cow.png"
"10/02/2021 00:11:19","09/02/2021 19:11:18",40999,4,3009674,"600b6e24048ccd12de29dc5f","Chrome 88.0.4324.146","final_recon",3,"SS5",43,"Screen 1","response_button_image",600.124999997206,"crow.png",1,1,0,"recon_trial","SS5",5,4,"rand","pet store.png",5,4,"crow.png"
"10/02/2021 00:11:19","09/02/2021 19:11:19",40999,4,3009674,"600b6e24048ccd12de29dc5f","Chrome 88.0.4324.146","final_recon",3,"SS5",44,"Screen 1","response_button_image",548.469999979716,"hermitcrab.png",1,0,0,"recon_trial","SS5",5,4,"rand","pet store.png",6,1,"rhino.png"
"10/02/2021 00:11:23","09/02/2021 19:11:23",40999,4,3009674,"600b6e24048ccd12de29dc5f","Chrome 88.0.4324.146","final_recon",3,"SS5",11,"Screen 1","response_button_image",3311.09500001185,"stingray.png",1,0,0,"recon_trial","SS5",1,3,"rand","pet store.png",1,4,"pufferfish.png"
"10/02/2021 00:11:25","09/02/2021 19:11:25",40999,4,3009674,"600b6e24048ccd12de29dc5f","Chrome 88.0.4324.146","final_recon",3,"SS5",12,"Screen 1","response_button_image",1244.39499998698,"pufferfish.png",1,0,0,"recon_trial","SS5",1,3,"rand","pet store.png",2,3,"dolphin.png"
"10/02/2021 00:11:25","09/02/2021 19:11:25",40999,4,3009674,"600b6e24048ccd12de29dc5f","Chrome 88.0.4324.146","final_recon",3,"SS5",13,"Screen 1","response_button_image",425.779999990482,"boar.png",1,0,0,"recon_trial","SS5",1,3,"rand","pet store.png",3,1,"stingray.png"
"10/02/2021 00:11:26","09/02/2021 19:11:26",40999,4,3009674,"600b6e24048ccd12de29dc5f","Chrome 88.0.4324.146","final_recon",3,"SS5",14,"Screen 1","response_button_image",601.864999975078,"llama.png",1,0,0,"recon_trial","SS5",1,3,"rand","pet store.png",4,2,"crocodile.png"
"10/02/2021 00:11:26","09/02/2021 19:11:26",40999,4,3009674,"600b6e24048ccd12de29dc5f","Chrome 88.0.4324.146","final_recon",3,"SS5",15,"Screen 1","response_button_image",715.65999998711,"dolphin.png",1,0,0,"recon_trial","SS5",1,3,"rand","pet store.png",5,1,"boar.png"
"10/02/2021 00:11:27","09/02/2021 19:11:27",40999,4,3009674,"600b6e24048ccd12de29dc5f","Chrome 88.0.4324.146","final_recon",3,"SS5",16,"Screen 1","response_button_image",550.419999985024,"crocodile.png",1,0,0,"recon_trial","SS5",1,3,"rand","pet store.png",6,3,"llama.png"
"10/02/2021 00:11:29","09/02/2021 19:11:29",40999,4,3009674,"600b6e24048ccd12de29dc5f","Chrome 88.0.4324.146","final_recon",3,"SS5",53,"Screen 1","response_button_image",993.14500001492,"butterfly.png",1,0,0,"recon_trial","SS5",7,4,"rand","pet store.png",1,3,"koala.png"
"10/02/2021 00:11:30","09/02/2021 19:11:30",40999,4,3009674,"600b6e24048ccd12de29dc5f","Chrome 88.0.4324.146","final_recon",3,"SS5",54,"Screen 1","response_button_image",917.209999985062,"kangaroo.png",1,0,0,"recon_trial","SS5",7,4,"rand","pet store.png",2,1,"grasshopper.png"
"10/02/2021 00:11:30","09/02/2021 19:11:30",40999,4,3009674,"600b6e24048ccd12de29dc5f","Chrome 88.0.4324.146","final_recon",3,"SS5",55,"Screen 1","response_button_image",483.294999983627,"surgeonfish.png",1,0,0,"recon_trial","SS5",7,4,"rand","pet store.png",3,4,"kangaroo.png"
"10/02/2021 00:11:31","09/02/2021 19:11:31",40999,4,3009674,"600b6e24048ccd12de29dc5f","Chrome 88.0.4324.146","final_recon",3,"SS5",56,"Screen 1","response_button_image",696.200000005774,"grasshopper.png",1,0,0,"recon_trial","SS5",7,4,"rand","pet store.png",4,2,"surgeonfish.png"
"10/02/2021 00:11:32","09/02/2021 19:11:32",40999,4,3009674,"600b6e24048ccd12de29dc5f","Chrome 88.0.4324.146","final_recon",3,"SS5",57,"Screen 1","response_button_image",559.799999988172,"koala.png",1,0,0,"recon_trial","SS5",7,4,"rand","pet store.png",5,4,"tortoise.png"
"10/02/2021 00:11:33","09/02/2021 19:11:32",40999,4,3009674,"600b6e24048ccd12de29dc5f","Chrome 88.0.4324.146","final_recon",3,"SS5",58,"Screen 1","response_button_image",720.734999980778,"tortoise.png",1,0,0,"recon_trial","SS5",7,4,"rand","pet store.png",6,1,"butterfly.png"
"10/02/2021 00:11:35","09/02/2021 19:11:35",40999,4,3009674,"600b6e24048ccd12de29dc5f","Chrome 88.0.4324.146","final_recon",3,"SS5",25,"Screen 1","response_button_image",1314.81499999063,"zebra.png",1,1,0,"recon_trial","SS5",3,1,"rand","pet store.png",1,2,"zebra.png"
"10/02/2021 00:11:36","09/02/2021 19:11:36",40999,4,3009674,"600b6e24048ccd12de29dc5f","Chrome 88.0.4324.146","final_recon",3,"SS5",26,"Screen 1","response_button_image",916.109999991022,"turtle.png",1,1,0,"recon_trial","SS5",3,1,"rand","pet store.png",2,4,"turtle.png"
"10/02/2021 00:11:37","09/02/2021 19:11:36",40999,4,3009674,"600b6e24048ccd12de29dc5f","Chrome 88.0.4324.146","final_recon",3,"SS5",27,"Screen 1","response_button_image",696.615000022575,"redpanda.png",1,0,0,"recon_trial","SS5",3,1,"rand","pet store.png",3,3,"chicken.png"
"10/02/2021 00:11:37","09/02/2021 19:11:37",40999,4,3009674,"600b6e24048ccd12de29dc5f","Chrome 88.0.4324.146","final_recon",3,"SS5",28,"Screen 1","response_button_image",735.169999999925,"lemur.png",1,1,0,"recon_trial","SS5",3,1,"rand","pet store.png",4,1,"lemur.png"
"10/02/2021 00:11:38","09/02/2021 19:11:38",40999,4,3009674,"600b6e24048ccd12de29dc5f","Chrome 88.0.4324.146","final_recon",3,"SS5",29,"Screen 1","response_button_image",444.650000019465,"chicken.png",1,0,0,"recon_trial","SS5",3,1,"rand","pet store.png",5,4,"sheep.png"
"10/02/2021 00:11:38","09/02/2021 19:11:38",40999,4,3009674,"600b6e24048ccd12de29dc5f","Chrome 88.0.4324.146","final_recon",3,"SS5",30,"Screen 1","response_button_image",516.4400000358,"sheep.png",1,0,0,"recon_trial","SS5",3,1,"rand","pet store.png",6,1,"redpanda.png"
"10/02/2021 00:11:41","09/02/2021 19:11:41",40999,4,3009674,"600b6e24048ccd12de29dc5f","Chrome 88.0.4324.146","final_recon",3,"SS5",18,"Screen 1","response_button_image",1859.75000000326,"orange.png",1,1,0,"recon_trial","SS5",3,2,"pred","grocery store.png",1,1,"orange.png"
"10/02/2021 00:11:42","09/02/2021 19:11:42",40999,4,3009674,"600b6e24048ccd12de29dc5f","Chrome 88.0.4324.146","final_recon",3,"SS5",19,"Screen 1","response_button_image",1342.81499998178,"lychee.png",1,1,0,"recon_trial","SS5",3,2,"pred","grocery store.png",2,4,"lychee.png"
"10/02/2021 00:11:43","09/02/2021 19:11:43",40999,4,3009674,"600b6e24048ccd12de29dc5f","Chrome 88.0.4324.146","final_recon",3,"SS5",20,"Screen 1","response_button_image",540.81000003498,"popcorn.png",1,1,0,"recon_trial","SS5",3,2,"pred","grocery store.png",3,3,"popcorn.png"
"10/02/2021 00:11:44","09/02/2021 19:11:43",40999,4,3009674,"600b6e24048ccd12de29dc5f","Chrome 88.0.4324.146","final_recon",3,"SS5",21,"Screen 1","response_button_image",523.22000003187,"strawberries.png",1,0,0,"recon_trial","SS5",3,2,"pred","grocery store.png",4,4,"cookedchicken.png"
"10/02/2021 00:11:44","09/02/2021 19:11:44",40999,4,3009674,"600b6e24048ccd12de29dc5f","Chrome 88.0.4324.146","final_recon",3,"SS5",22,"Screen 1","response_button_image",844.539999961853,"kiwi.png",1,0,0,"recon_trial","SS5",3,2,"pred","grocery store.png",5,2,"strawberries.png"
"10/02/2021 00:11:45","09/02/2021 19:11:45",40999,4,3009674,"600b6e24048ccd12de29dc5f","Chrome 88.0.4324.146","final_recon",3,"SS5",23,"Screen 1","response_button_image",426.640000019688,"cookedchicken.png",1,0,0,"recon_trial","SS5",3,2,"pred","grocery store.png",6,3,"kiwi.png"
"10/02/2021 00:11:48","09/02/2021 19:11:48",40999,4,3009674,"600b6e24048ccd12de29dc5f","Chrome 88.0.4324.146","final_recon",3,"SS5",4,"Screen 1","response_button_image",1870.76499999966,"caramelapple.png",1,1,0,"recon_trial","SS5",1,1,"pred","grocery store.png",1,1,"caramelapple.png"
"10/02/2021 00:11:48","09/02/2021 19:11:48",40999,4,3009674,"600b6e24048ccd12de29dc5f","Chrome 88.0.4324.146","final_recon",3,"SS5",5,"Screen 1","response_button_image",737.079999991693,"broccoli.png",1,0,0,"recon_trial","SS5",1,1,"pred","grocery store.png",2,4,"poutine.png"
"10/02/2021 00:11:49","09/02/2021 19:11:49",40999,4,3009674,"600b6e24048ccd12de29dc5f","Chrome 88.0.4324.146","final_recon",3,"SS5",6,"Screen 1","response_button_image",486.644999997225,"poutine.png",1,0,0,"recon_trial","SS5",1,1,"pred","grocery store.png",3,3,"mushrooms.png"
"10/02/2021 00:11:49","09/02/2021 19:11:49",40999,4,3009674,"600b6e24048ccd12de29dc5f","Chrome 88.0.4324.146","final_recon",3,"SS5",7,"Screen 1","response_button_image",454.354999994393,"basil.png",1,0,0,"recon_trial","SS5",1,1,"pred","grocery store.png",4,4,"onion.png"
"10/02/2021 00:11:50","09/02/2021 19:11:50",40999,4,3009674,"600b6e24048ccd12de29dc5f","Chrome 88.0.4324.146","final_recon",3,"SS5",8,"Screen 1","response_button_image",579.755000013392,"onion.png",1,0,0,"recon_trial","SS5",1,1,"pred","grocery store.png",5,2,"broccoli.png"
"10/02/2021 00:11:51","09/02/2021 19:11:50",40999,4,3009674,"600b6e24048ccd12de29dc5f","Chrome 88.0.4324.146","final_recon",3,"SS5",9,"Screen 1","response_button_image",495.114999997895,"mushrooms.png",1,0,0,"recon_trial","SS5",1,1,"pred","grocery store.png",6,3,"basil.png"
"10/02/2021 00:11:54","09/02/2021 19:11:54",40999,4,3009674,"600b6e24048ccd12de29dc5f","Chrome 88.0.4324.146","final_recon",3,"SS5",32,"Screen 1","response_button_image",2913.44500001287,"dumplings.png",1,1,0,"recon_trial","SS5",5,2,"pred","grocery store.png",1,1,"dumplings.png"
"10/02/2021 00:11:55","09/02/2021 19:11:55",40999,4,3009674,"600b6e24048ccd12de29dc5f","Chrome 88.0.4324.146","final_recon",3,"SS5",33,"Screen 1","response_button_image",656.125000037719,"apple.png",1,0,0,"recon_trial","SS5",5,2,"pred","grocery store.png",2,4,"coconut.png"
"10/02/2021 00:11:55","09/02/2021 19:11:55",40999,4,3009674,"600b6e24048ccd12de29dc5f","Chrome 88.0.4324.146","final_recon",3,"SS5",34,"Screen 1","response_button_image",359.269999957178,"rice.png",1,0,0,"recon_trial","SS5",5,2,"pred","grocery store.png",3,3,"apple.png"
"10/02/2021 00:11:56","09/02/2021 19:11:56",40999,4,3009674,"600b6e24048ccd12de29dc5f","Chrome 88.0.4324.146","final_recon",3,"SS5",35,"Screen 1","response_button_image",500.110000022687,"chocolatemilk.png",1,0,0,"recon_trial","SS5",5,2,"pred","grocery store.png",4,4,"rice.png"
"10/02/2021 00:11:56","09/02/2021 19:11:56",40999,4,3009674,"600b6e24048ccd12de29dc5f","Chrome 88.0.4324.146","final_recon",3,"SS5",36,"Screen 1","response_button_image",428.650000016205,"coconut.png",1,0,0,"recon_trial","SS5",5,2,"pred","grocery store.png",5,2,"chocolatemilk.png"
"10/02/2021 00:11:57","09/02/2021 19:11:57",40999,4,3009674,"600b6e24048ccd12de29dc5f","Chrome 88.0.4324.146","final_recon",3,"SS5",37,"Screen 1","response_button_image",657.520000007935,"pancakes.png",1,1,0,"recon_trial","SS5",5,2,"pred","grocery store.png",6,3,"pancakes.png"
"10/02/2021 00:13:14","09/02/2021 18:13:14",40999,4,3009661,"5f2502c10858c4143fafa023","Firefox 85.0","final_recon",3,"SS8",46,"Screen 1","response_button_image",13178,"chicken.png",1,0,0,"recon_trial","SS8",7,3,"pred","pet store.png",1,3,"lion.png"
"10/02/2021 00:13:19","09/02/2021 18:13:19",40999,4,3009661,"5f2502c10858c4143fafa023","Firefox 85.0","final_recon",3,"SS8",47,"Screen 1","response_button_image",4493,"beetle.png",1,0,0,"recon_trial","SS8",7,3,"pred","pet store.png",2,2,"chicken.png"
"10/02/2021 00:13:24","09/02/2021 18:13:24",40999,4,3009661,"5f2502c10858c4143fafa023","Firefox 85.0","final_recon",3,"SS8",48,"Screen 1","response_button_image",5557,"tiger.png",1,0,0,"recon_trial","SS8",7,3,"pred","pet store.png",3,4,"beetle.png"
"10/02/2021 00:13:27","09/02/2021 18:13:27",40999,4,3009661,"5f2502c10858c4143fafa023","Firefox 85.0","final_recon",3,"SS8",49,"Screen 1","response_button_image",2286,"pangolin.png",1,0,0,"recon_trial","SS8",7,3,"pred","pet store.png",4,2,"tiger.png"
"10/02/2021 00:13:27","09/02/2021 18:13:27",40999,4,3009661,"5f2502c10858c4143fafa023","Firefox 85.0","final_recon",3,"SS8",50,"Screen 1","response_button_image",722,"lion.png",1,0,0,"recon_trial","SS8",7,3,"pred","pet store.png",5,1,"pangolin.png"
"10/02/2021 00:13:28","09/02/2021 18:13:28",40999,4,3009661,"5f2502c10858c4143fafa023","Firefox 85.0","final_recon",3,"SS8",51,"Screen 1","response_button_image",362,"sheep.png",1,1,0,"recon_trial","SS8",7,3,"pred","pet store.png",6,4,"sheep.png"
"10/02/2021 00:13:31","09/02/2021 18:13:31",40999,4,3009661,"5f2502c10858c4143fafa023","Firefox 85.0","final_recon",3,"SS8",11,"Screen 1","response_button_image",2371,"grapes.png",1,1,0,"recon_trial","SS8",1,3,"rand","grocery store.png",1,4,"grapes.png"
"10/02/2021 00:13:32","09/02/2021 18:13:32",40999,4,3009661,"5f2502c10858c4143fafa023","Firefox 85.0","final_recon",3,"SS8",12,"Screen 1","response_button_image",1097,"jalapeno.png",1,1,0,"recon_trial","SS8",1,3,"rand","grocery store.png",2,3,"jalapeno.png"
"10/02/2021 00:13:35","09/02/2021 18:13:35",40999,4,3009661,"5f2502c10858c4143fafa023","Firefox 85.0","final_recon",3,"SS8",13,"Screen 1","response_button_image",3000,"pineapple.png",1,0,0,"recon_trial","SS8",1,3,"rand","grocery store.png",3,1,"raspberries.png"
"10/02/2021 00:13:36","09/02/2021 18:13:36",40999,4,3009661,"5f2502c10858c4143fafa023","Firefox 85.0","final_recon",3,"SS8",14,"Screen 1","response_button_image",646,"raspberries.png",1,0,0,"recon_trial","SS8",1,3,"rand","grocery store.png",4,2,"pineapple.png"
"10/02/2021 00:13:36","09/02/2021 18:13:36",40999,4,3009661,"5f2502c10858c4143fafa023","Firefox 85.0","final_recon",3,"SS8",15,"Screen 1","response_button_image",459,"bakedpotato.png",1,1,0,"recon_trial","SS8",1,3,"rand","grocery store.png",5,1,"bakedpotato.png"
"10/02/2021 00:13:37","09/02/2021 18:13:37",40999,4,3009661,"5f2502c10858c4143fafa023","Firefox 85.0","final_recon",3,"SS8",16,"Screen 1","response_button_image",376,"fortunecookie.png",1,1,0,"recon_trial","SS8",1,3,"rand","grocery store.png",6,3,"fortunecookie.png"
"10/02/2021 00:13:42","09/02/2021 18:13:42",40999,4,3009661,"5f2502c10858c4143fafa023","Firefox 85.0","final_recon",3,"SS8",53,"Screen 1","response_button_image",3890,"cherries.png",1,1,0,"recon_trial","SS8",7,4,"rand","grocery store.png",1,2,"cherries.png"
"10/02/2021 00:13:43","09/02/2021 18:13:43",40999,4,3009661,"5f2502c10858c4143fafa023","Firefox 85.0","final_recon",3,"SS8",54,"Screen 1","response_button_image",1468,"peaches.png",1,1,0,"recon_trial","SS8",7,4,"rand","grocery store.png",2,4,"peaches.png"
"10/02/2021 00:13:45","09/02/2021 18:13:45",40999,4,3009661,"5f2502c10858c4143fafa023","Firefox 85.0","final_recon",3,"SS8",55,"Screen 1","response_button_image",1627,"acornsquash.png",1,1,0,"recon_trial","SS8",7,4,"rand","grocery store.png",3,1,"acornsquash.png"
"10/02/2021 00:13:45","09/02/2021 18:13:45",40999,4,3009661,"5f2502c10858c4143fafa023","Firefox 85.0","final_recon",3,"SS8",56,"Screen 1","response_button_image",417,"taco.png",1,0,0,"recon_trial","SS8",7,4,"rand","grocery store.png",4,3,"soup.png"
"10/02/2021 00:13:46","09/02/2021 18:13:46",40999,4,3009661,"5f2502c10858c4143fafa023","Firefox 85.0","final_recon",3,"SS8",57,"Screen 1","response_button_image",827,"soup.png",1,0,0,"recon_trial","SS8",7,4,"rand","grocery store.png",5,4,"taco.png"
"10/02/2021 00:13:47","09/02/2021 18:13:46",40999,4,3009661,"5f2502c10858c4143fafa023","Firefox 85.0","final_recon",3,"SS8",58,"Screen 1","response_button_image",408,"poutine.png",1,1,0,"recon_trial","SS8",7,4,"rand","grocery store.png",6,3,"poutine.png"
"10/02/2021 00:13:53","09/02/2021 18:13:53",40999,4,3009661,"5f2502c10858c4143fafa023","Firefox 85.0","final_recon",3,"SS8",4,"Screen 1","response_button_image",5793,"canadiangoose.png",1,0,0,"recon_trial","SS8",1,4,"pred","pet store.png",1,3,"turkey.png"
"10/02/2021 00:13:59","09/02/2021 18:13:58",40999,4,3009661,"5f2502c10858c4143fafa023","Firefox 85.0","final_recon",3,"SS8",5,"Screen 1","response_button_image",5206,"pig.png",1,0,0,"recon_trial","SS8",1,4,"pred","pet store.png",2,2,"fox.png"
"10/02/2021 00:14:00","09/02/2021 18:13:59",40999,4,3009661,"5f2502c10858c4143fafa023","Firefox 85.0","final_recon",3,"SS8",6,"Screen 1","response_button_image",973,"cheetah.png",1,0,0,"recon_trial","SS8",1,4,"pred","pet store.png",3,4,"toucan.png"
"10/02/2021 00:14:03","09/02/2021 18:14:03",40999,4,3009661,"5f2502c10858c4143fafa023","Firefox 85.0","final_recon",3,"SS8",7,"Screen 1","response_button_image",3080,"turkey.png",1,0,0,"recon_trial","SS8",1,4,"pred","pet store.png",4,2,"canadiangoose.png"
"10/02/2021 00:14:03","09/02/2021 18:14:03",40999,4,3009661,"5f2502c10858c4143fafa023","Firefox 85.0","final_recon",3,"SS8",8,"Screen 1","response_button_image",800,"fox.png",1,0,0,"recon_trial","SS8",1,4,"pred","pet store.png",5,1,"pig.png"
"10/02/2021 00:14:04","09/02/2021 18:14:04",40999,4,3009661,"5f2502c10858c4143fafa023","Firefox 85.0","final_recon",3,"SS8",9,"Screen 1","response_button_image",751,"toucan.png",1,0,0,"recon_trial","SS8",1,4,"pred","pet store.png",6,4,"cheetah.png"
"10/02/2021 00:14:13","09/02/2021 18:14:13",40999,4,3009661,"5f2502c10858c4143fafa023","Firefox 85.0","final_recon",3,"SS8",18,"Screen 1","response_button_image",7749,"rabbit.png",1,1,0,"recon_trial","SS8",3,4,"pred","pet store.png",1,3,"rabbit.png"
"10/02/2021 00:14:16","09/02/2021 18:14:16",40999,4,3009661,"5f2502c10858c4143fafa023","Firefox 85.0","final_recon",3,"SS8",19,"Screen 1","response_button_image",2620,"butterfly.png",1,0,0,"recon_trial","SS8",3,4,"pred","pet store.png",2,2,"platypus.png"
"10/02/2021 00:14:19","09/02/2021 18:14:19",40999,4,3009661,"5f2502c10858c4143fafa023","Firefox 85.0","final_recon",3,"SS8",20,"Screen 1","response_button_image",3495,"platypus.png",1,0,0,"recon_trial","SS8",3,4,"pred","pet store.png",3,4,"rat.png"
"10/02/2021 00:14:21","09/02/2021 18:14:21",40999,4,3009661,"5f2502c10858c4143fafa023","Firefox 85.0","final_recon",3,"SS8",21,"Screen 1","response_button_image",1559,"zebra.png",1,1,0,"recon_trial","SS8",3,4,"pred","pet store.png",4,2,"zebra.png"
"10/02/2021 00:14:21","09/02/2021 18:14:21",40999,4,3009661,"5f2502c10858c4143fafa023","Firefox 85.0","final_recon",3,"SS8",22,"Screen 1","response_button_image",663,"elephant.png",1,1,0,"recon_trial","SS8",3,4,"pred","pet store.png",5,1,"elephant.png"
"10/02/2021 00:14:22","09/02/2021 18:14:22",40999,4,3009661,"5f2502c10858c4143fafa023","Firefox 85.0","final_recon",3,"SS8",23,"Screen 1","response_button_image",595,"rat.png",1,0,0,"recon_trial","SS8",3,4,"pred","pet store.png",6,4,"butterfly.png"
"10/02/2021 00:14:32","09/02/2021 18:14:32",40999,4,3009661,"5f2502c10858c4143fafa023","Firefox 85.0","final_recon",3,"SS8",32,"Screen 1","response_button_image",8789,"hedgehog.png",1,0,0,"recon_trial","SS8",5,1,"pred","pet store.png",1,3,"bear.png"
"10/02/2021 00:14:35","09/02/2021 18:14:35",40999,4,3009661,"5f2502c10858c4143fafa023","Firefox 85.0","final_recon",3,"SS8",33,"Screen 1","response_button_image",3137,"hermitcrab.png",1,1,0,"recon_trial","SS8",5,1,"pred","pet store.png",2,2,"hermitcrab.png"
"10/02/2021 00:14:35","09/02/2021 18:14:35",40999,4,3009661,"5f2502c10858c4143fafa023","Firefox 85.0","final_recon",3,"SS8",34,"Screen 1","response_button_image",576,"lemur.png",1,1,0,"recon_trial","SS8",5,1,"pred","pet store.png",3,4,"lemur.png"
"10/02/2021 00:14:36","09/02/2021 18:14:36",40999,4,3009661,"5f2502c10858c4143fafa023","Firefox 85.0","final_recon",3,"SS8",35,"Screen 1","response_button_image",745,"redpanda.png",1,0,0,"recon_trial","SS8",5,1,"pred","pet store.png",4,2,"cardinal.png"
"10/02/2021 00:14:37","09/02/2021 18:14:37",40999,4,3009661,"5f2502c10858c4143fafa023","Firefox 85.0","final_recon",3,"SS8",36,"Screen 1","response_button_image",703,"bear.png",1,0,0,"recon_trial","SS8",5,1,"pred","pet store.png",5,1,"hedgehog.png"
"10/02/2021 00:14:37","09/02/2021 18:14:37",40999,4,3009661,"5f2502c10858c4143fafa023","Firefox 85.0","final_recon",3,"SS8",37,"Screen 1","response_button_image",276,"cardinal.png",1,0,0,"recon_trial","SS8",5,1,"pred","pet store.png",6,4,"redpanda.png"
"10/02/2021 00:14:43","09/02/2021 18:14:43",40999,4,3009661,"5f2502c10858c4143fafa023","Firefox 85.0","final_recon",3,"SS8",39,"Screen 1","response_button_image",4684,"watermelon.png",1,1,0,"recon_trial","SS8",5,2,"rand","grocery store.png",1,2,"watermelon.png"
"10/02/2021 00:14:44","09/02/2021 18:14:44",40999,4,3009661,"5f2502c10858c4143fafa023","Firefox 85.0","final_recon",3,"SS8",40,"Screen 1","response_button_image",671,"bacon.png",1,1,0,"recon_trial","SS8",5,2,"rand","grocery store.png",2,4,"bacon.png"
