"utc_date","local_date","exp_id","exp_ver","id","prolific_id","browser","task","task_ver","gorilla_counterbalance","trial_row","rt","response","attempt","accuracy","dishonest","display","counterbalance_order","list","event","condition","event_name","seq_pos","spatial_pos","recon_correct","spatial_stim","spatial_correct","temp_conf"
"14/07/2021 20:00:01","14/07/2021 12:59:54",56975,3,4266017,"60ee922fcc2b54102d237822","Edge 91.0.864.67","retrieval_b1",4,"SS6",11,3839.90000000596,"walnutsB.png",1,1,0,"recon_trial","SS6",1,3,"rand","grocery store.png",1,4,"walnutsB.png",NA,NA,NA
"14/07/2021 20:00:05","14/07/2021 12:59:57",56975,3,4266017,"60ee922fcc2b54102d237822","Edge 91.0.864.67","retrieval_b1",4,"SS6",12,3488.29999999702,"nachosB.png",1,1,0,"recon_trial","SS6",1,3,"rand","grocery store.png",2,3,"nachosB.png",NA,NA,NA
"14/07/2021 20:00:10","14/07/2021 13:00:02",56975,3,4266017,"60ee922fcc2b54102d237822","Edge 91.0.864.67","retrieval_b1",4,"SS6",13,4899.69999998808,"hotdogB.png",1,1,0,"recon_trial","SS6",1,3,"rand","grocery store.png",3,1,"hotdogB.png",NA,NA,NA
"14/07/2021 20:00:15","14/07/2021 13:00:07",56975,3,4266017,"60ee922fcc2b54102d237822","Edge 91.0.864.67","retrieval_b1",4,"SS6",14,4957.70000000298,"starfruitB.png",1,1,0,"recon_trial","SS6",1,3,"rand","grocery store.png",4,2,"starfruitB.png",NA,NA,NA
"14/07/2021 20:00:17","14/07/2021 13:00:09",56975,3,4266017,"60ee922fcc2b54102d237822","Edge 91.0.864.67","retrieval_b1",4,"SS6",15,1965.79999999702,"tacoB.png",1,0,0,"recon_trial","SS6",1,3,"rand","grocery store.png",5,1,"celeryB.png",NA,NA,NA
"14/07/2021 20:00:18","14/07/2021 13:00:10",56975,3,4266017,"60ee922fcc2b54102d237822","Edge 91.0.864.67","retrieval_b1",4,"SS6",16,918.59999999404,"celeryB.png",1,0,0,"recon_trial","SS6",1,3,"rand","grocery store.png",6,3,"tacoB.png",NA,NA,NA
"14/07/2021 20:00:26","14/07/2021 13:00:18",56975,3,4266017,"60ee922fcc2b54102d237822","Edge 91.0.864.67","retrieval_b1",4,"SS6",4,6965.29999999702,"caterpillarB.png",1,1,0,"recon_trial","SS6",1,4,"pred","pet store.png",1,1,"caterpillarB.png",NA,NA,NA
"14/07/2021 20:00:27","14/07/2021 13:00:19",56975,3,4266017,"60ee922fcc2b54102d237822","Edge 91.0.864.67","retrieval_b1",4,"SS6",5,1107.70000000298,"butterflyB.png",1,1,0,"recon_trial","SS6",1,4,"pred","pet store.png",2,4,"butterflyB.png",NA,NA,NA
"14/07/2021 20:00:33","14/07/2021 13:00:25",56975,3,4266017,"60ee922fcc2b54102d237822","Edge 91.0.864.67","retrieval_b1",4,"SS6",6,5690.20000000298,"chickenB.png",1,1,0,"recon_trial","SS6",1,4,"pred","pet store.png",3,3,"chickenB.png",NA,NA,NA
"14/07/2021 20:00:34","14/07/2021 13:00:26",56975,3,4266017,"60ee922fcc2b54102d237822","Edge 91.0.864.67","retrieval_b1",4,"SS6",7,1117.39999999106,"pelicanB.png",1,1,0,"recon_trial","SS6",1,4,"pred","pet store.png",4,4,"pelicanB.png",NA,NA,NA
"14/07/2021 20:00:35","14/07/2021 13:00:27",56975,3,4266017,"60ee922fcc2b54102d237822","Edge 91.0.864.67","retrieval_b1",4,"SS6",8,1025.20000000298,"polarbearB.png",1,1,0,"recon_trial","SS6",1,4,"pred","pet store.png",5,2,"polarbearB.png",NA,NA,NA
"14/07/2021 20:00:35","14/07/2021 13:00:28",56975,3,4266017,"60ee922fcc2b54102d237822","Edge 91.0.864.67","retrieval_b1",4,"SS6",9,698,"zebraB.png",1,1,0,"recon_trial","SS6",1,4,"pred","pet store.png",6,3,"zebraB.png",NA,NA,NA
"14/07/2021 20:03:44","14/07/2021 13:03:36",56975,3,4266017,"60ee922fcc2b54102d237822","Edge 91.0.864.67","retrieval_b2",3,"SS6",4,4011.60000000894,"pantherB.png",1,1,0,"recon_trial","SS6",2,1,"pred","pet store.png",1,1,"pantherB.png",NA,NA,NA
"14/07/2021 20:03:46","14/07/2021 13:03:38",56975,3,4266017,"60ee922fcc2b54102d237822","Edge 91.0.864.67","retrieval_b2",3,"SS6",5,2129,"rabbitB.png",1,1,0,"recon_trial","SS6",2,1,"pred","pet store.png",2,4,"rabbitB.png",NA,NA,NA
"14/07/2021 20:03:47","14/07/2021 13:03:40",56975,3,4266017,"60ee922fcc2b54102d237822","Edge 91.0.864.67","retrieval_b2",3,"SS6",6,1577.30000001192,"kangarooB.png",1,1,0,"recon_trial","SS6",2,1,"pred","pet store.png",3,3,"kangarooB.png",NA,NA,NA
"14/07/2021 20:03:52","14/07/2021 13:03:44",56975,3,4266017,"60ee922fcc2b54102d237822","Edge 91.0.864.67","retrieval_b2",3,"SS6",7,4462,"turkeyB.png",1,1,0,"recon_trial","SS6",2,1,"pred","pet store.png",4,4,"turkeyB.png",NA,NA,NA
"14/07/2021 20:03:53","14/07/2021 13:03:45",56975,3,4266017,"60ee922fcc2b54102d237822","Edge 91.0.864.67","retrieval_b2",3,"SS6",8,798.5,"elephantB.png",1,1,0,"recon_trial","SS6",2,1,"pred","pet store.png",5,2,"elephantB.png",NA,NA,NA
"14/07/2021 20:03:53","14/07/2021 13:03:46",56975,3,4266017,"60ee922fcc2b54102d237822","Edge 91.0.864.67","retrieval_b2",3,"SS6",9,675.100000008941,"dolphinB.png",1,1,0,"recon_trial","SS6",2,1,"pred","pet store.png",6,3,"dolphinB.png",NA,NA,NA
"14/07/2021 20:03:57","14/07/2021 13:03:50",56975,3,4266017,"60ee922fcc2b54102d237822","Edge 91.0.864.67","retrieval_b2",3,"SS6",11,2748.20000000298,"cookiesB.png",1,1,0,"recon_trial","SS6",2,3,"rand","grocery store.png",1,3,"cookiesB.png",NA,NA,NA
"14/07/2021 20:04:04","14/07/2021 13:03:56",56975,3,4266017,"60ee922fcc2b54102d237822","Edge 91.0.864.67","retrieval_b2",3,"SS6",12,6308.5,"burritoB.png",1,1,0,"recon_trial","SS6",2,3,"rand","grocery store.png",2,4,"burritoB.png",NA,NA,NA
"14/07/2021 20:04:05","14/07/2021 13:03:57",56975,3,4266017,"60ee922fcc2b54102d237822","Edge 91.0.864.67","retrieval_b2",3,"SS6",13,1285.20000000298,"dumplingsB.png",1,1,0,"recon_trial","SS6",2,3,"rand","grocery store.png",3,1,"dumplingsB.png",NA,NA,NA
"14/07/2021 20:04:09","14/07/2021 13:04:01",56975,3,4266017,"60ee922fcc2b54102d237822","Edge 91.0.864.67","retrieval_b2",3,"SS6",14,3604.79999999702,"cakeB.png",1,0,0,"recon_trial","SS6",2,3,"rand","grocery store.png",4,2,"saladB.png",NA,NA,NA
"14/07/2021 20:04:10","14/07/2021 13:04:03",56975,3,4266017,"60ee922fcc2b54102d237822","Edge 91.0.864.67","retrieval_b2",3,"SS6",15,1593.60000000894,"kiwiB.png",1,1,0,"recon_trial","SS6",2,3,"rand","grocery store.png",5,1,"kiwiB.png",NA,NA,NA
"14/07/2021 20:04:11","14/07/2021 13:04:03",56975,3,4266017,"60ee922fcc2b54102d237822","Edge 91.0.864.67","retrieval_b2",3,"SS6",16,584.70000000298,"saladB.png",1,0,0,"recon_trial","SS6",2,3,"rand","grocery store.png",6,4,"cakeB.png",NA,NA,NA
"14/07/2021 20:07:26","14/07/2021 13:07:19",56975,3,4266017,"60ee922fcc2b54102d237822","Edge 91.0.864.67","retrieval_b3",3,"SS6",11,12073.299999997,"chocolatemilkB.png",1,1,0,"recon_trial","SS6",3,2,"rand","grocery store.png",1,3,"chocolatemilkB.png",NA,NA,NA
"14/07/2021 20:07:28","14/07/2021 13:07:21",56975,3,4266017,"60ee922fcc2b54102d237822","Edge 91.0.864.67","retrieval_b3",3,"SS6",12,1957.90000000596,"guavaB.png",1,1,0,"recon_trial","SS6",3,2,"rand","grocery store.png",2,4,"guavaB.png",NA,NA,NA
"14/07/2021 20:07:29","14/07/2021 13:07:22",56975,3,4266017,"60ee922fcc2b54102d237822","Edge 91.0.864.67","retrieval_b3",3,"SS6",13,1068.09999999404,"watermelonB.png",1,1,0,"recon_trial","SS6",3,2,"rand","grocery store.png",3,2,"watermelonB.png",NA,NA,NA
"14/07/2021 20:07:35","14/07/2021 13:07:27",56975,3,4266017,"60ee922fcc2b54102d237822","Edge 91.0.864.67","retrieval_b3",3,"SS6",14,5563.5,"oliveoilB.png",1,0,0,"recon_trial","SS6",3,2,"rand","grocery store.png",4,1,"soupB.png",NA,NA,NA
"14/07/2021 20:07:36","14/07/2021 13:07:28",56975,3,4266017,"60ee922fcc2b54102d237822","Edge 91.0.864.67","retrieval_b3",3,"SS6",15,867.20000000298,"soupB.png",1,0,0,"recon_trial","SS6",3,2,"rand","grocery store.png",5,4,"oliveoilB.png",NA,NA,NA
"14/07/2021 20:07:36","14/07/2021 13:07:29",56975,3,4266017,"60ee922fcc2b54102d237822","Edge 91.0.864.67","retrieval_b3",3,"SS6",16,580.40000000596,"pieB.png",1,1,0,"recon_trial","SS6",3,2,"rand","grocery store.png",6,1,"pieB.png",NA,NA,NA
"14/07/2021 20:07:47","14/07/2021 13:07:40",56975,3,4266017,"60ee922fcc2b54102d237822","Edge 91.0.864.67","retrieval_b3",3,"SS6",4,9689.80000001192,"gooseB.png",1,1,0,"recon_trial","SS6",3,4,"pred","pet store.png",1,1,"gooseB.png",NA,NA,NA
"14/07/2021 20:07:50","14/07/2021 13:07:43",56975,3,4266017,"60ee922fcc2b54102d237822","Edge 91.0.864.67","retrieval_b3",3,"SS6",5,3054.10000000894,"grasshopperB.png",1,1,0,"recon_trial","SS6",3,4,"pred","pet store.png",2,4,"grasshopperB.png",NA,NA,NA
"14/07/2021 20:07:57","14/07/2021 13:07:50",56975,3,4266017,"60ee922fcc2b54102d237822","Edge 91.0.864.67","retrieval_b3",3,"SS6",6,7238,"pandaB.png",1,0,0,"recon_trial","SS6",3,4,"pred","pet store.png",3,3,"penguinB.png",NA,NA,NA
"14/07/2021 20:07:59","14/07/2021 13:07:51",56975,3,4266017,"60ee922fcc2b54102d237822","Edge 91.0.864.67","retrieval_b3",3,"SS6",7,1199.89999999106,"bearB.png",1,0,0,"recon_trial","SS6",3,4,"pred","pet store.png",4,4,"pandaB.png",NA,NA,NA
"14/07/2021 20:08:00","14/07/2021 13:07:52",56975,3,4266017,"60ee922fcc2b54102d237822","Edge 91.0.864.67","retrieval_b3",3,"SS6",8,896.20000000298,"walrusB.png",1,0,0,"recon_trial","SS6",3,4,"pred","pet store.png",5,2,"bearB.png",NA,NA,NA
"14/07/2021 20:08:00","14/07/2021 13:07:53",56975,3,4266017,"60ee922fcc2b54102d237822","Edge 91.0.864.67","retrieval_b3",3,"SS6",9,776.29999999702,"penguinB.png",1,0,0,"recon_trial","SS6",3,4,"pred","pet store.png",6,3,"walrusB.png",NA,NA,NA
"14/07/2021 20:10:58","14/07/2021 13:10:50",56975,3,4266017,"60ee922fcc2b54102d237822","Edge 91.0.864.67","retrieval_b4",3,"SS6",4,5361.20000000298,"manateeB.png",1,1,0,"recon_trial","SS6",4,2,"pred","pet store.png",1,1,"manateeB.png",NA,NA,NA
"14/07/2021 20:11:13","14/07/2021 13:11:05",56975,3,4266017,"60ee922fcc2b54102d237822","Edge 91.0.864.67","retrieval_b4",3,"SS6",5,15000.76,NA,NA,0,0,"recon_trial","SS6",4,2,"pred","pet store.png",2,4,"turtleB.png",NA,NA,NA
"14/07/2021 20:11:15","14/07/2021 13:11:08",56975,3,4266017,"60ee922fcc2b54102d237822","Edge 91.0.864.67","retrieval_b4",3,"SS6",6,2078.90000000596,"turtleB.png",1,0,0,"recon_trial","SS6",4,2,"pred","pet store.png",3,3,"gorillaB.png",NA,NA,NA
"14/07/2021 20:11:18","14/07/2021 13:11:11",56975,3,4266017,"60ee922fcc2b54102d237822","Edge 91.0.864.67","retrieval_b4",3,"SS6",7,2985.60000000894,"gorillaB.png",1,0,0,"recon_trial","SS6",4,2,"pred","pet store.png",4,4,"ostrichB.png",NA,NA,NA
"14/07/2021 20:11:19","14/07/2021 13:11:12",56975,3,4266017,"60ee922fcc2b54102d237822","Edge 91.0.864.67","retrieval_b4",3,"SS6",8,1191.59999999404,"ladybugB.png",1,1,0,"recon_trial","SS6",4,2,"pred","pet store.png",5,2,"ladybugB.png",NA,NA,NA
"14/07/2021 20:11:20","14/07/2021 13:11:13",56975,3,4266017,"60ee922fcc2b54102d237822","Edge 91.0.864.67","retrieval_b4",3,"SS6",9,1034,"ostrichB.png",1,0,0,"recon_trial","SS6",4,2,"pred","pet store.png",6,3,"horseB.png",NA,NA,NA
"14/07/2021 20:11:25","14/07/2021 13:11:18",56975,3,4266017,"60ee922fcc2b54102d237822","Edge 91.0.864.67","retrieval_b4",3,"SS6",11,4047.30000001192,"appleB.png",1,1,0,"recon_trial","SS6",4,4,"rand","grocery store.png",1,4,"appleB.png",NA,NA,NA
"14/07/2021 20:11:32","14/07/2021 13:11:25",56975,3,4266017,"60ee922fcc2b54102d237822","Edge 91.0.864.67","retrieval_b4",3,"SS6",12,6917.30000001192,"cookedchickenB.png",1,0,0,"recon_trial","SS6",4,4,"rand","grocery store.png",2,2,"edamameB.png",NA,NA,NA
"14/07/2021 20:11:34","14/07/2021 13:11:27",56975,3,4266017,"60ee922fcc2b54102d237822","Edge 91.0.864.67","retrieval_b4",3,"SS6",13,1780,"edamameB.png",1,0,0,"recon_trial","SS6",4,4,"rand","grocery store.png",3,3,"cookedchickenB.png",NA,NA,NA
"14/07/2021 20:11:35","14/07/2021 13:11:28",56975,3,4266017,"60ee922fcc2b54102d237822","Edge 91.0.864.67","retrieval_b4",3,"SS6",14,1113.40000000596,"bellpeppersB.png",1,1,0,"recon_trial","SS6",4,4,"rand","grocery store.png",4,1,"bellpeppersB.png",NA,NA,NA
"14/07/2021 20:11:37","14/07/2021 13:11:30",56975,3,4266017,"60ee922fcc2b54102d237822","Edge 91.0.864.67","retrieval_b4",3,"SS6",15,2009.5,"croissantB.png",1,1,0,"recon_trial","SS6",4,4,"rand","grocery store.png",5,2,"croissantB.png",NA,NA,NA
"14/07/2021 20:11:38","14/07/2021 13:11:31",56975,3,4266017,"60ee922fcc2b54102d237822","Edge 91.0.864.67","retrieval_b4",3,"SS6",16,856.40000000596,"lemonB.png",1,1,0,"recon_trial","SS6",4,4,"rand","grocery store.png",6,1,"lemonB.png",NA,NA,NA
"14/07/2021 20:17:46","14/07/2021 13:17:39",56975,3,4266017,"60ee922fcc2b54102d237822","Edge 91.0.864.67","retrieval_b5",3,"SS6",4,4109.60000000894,"hedgehogB.png",1,1,0,"recon_trial","SS6",5,3,"pred","pet store.png",1,1,"hedgehogB.png",NA,NA,NA
"14/07/2021 20:18:01","14/07/2021 13:17:54",56975,3,4266017,"60ee922fcc2b54102d237822","Edge 91.0.864.67","retrieval_b5",3,"SS6",5,15000.755,NA,NA,0,0,"recon_trial","SS6",5,3,"pred","pet store.png",2,4,"deerB.png",NA,NA,NA
"14/07/2021 20:18:04","14/07/2021 13:17:57",56975,3,4266017,"60ee922fcc2b54102d237822","Edge 91.0.864.67","retrieval_b5",3,"SS6",6,3184.90000000596,"goldenretrieverB.png",1,0,0,"recon_trial","SS6",5,3,"pred","pet store.png",3,3,"redpandaB.png",NA,NA,NA
"14/07/2021 20:18:08","14/07/2021 13:18:00",56975,3,4266017,"60ee922fcc2b54102d237822","Edge 91.0.864.67","retrieval_b5",3,"SS6",7,3228,"redpandaB.png",1,0,0,"recon_trial","SS6",5,3,"pred","pet store.png",4,4,"goldenretrieverB.png",NA,NA,NA
"14/07/2021 20:18:08","14/07/2021 13:18:01",56975,3,4266017,"60ee922fcc2b54102d237822","Edge 91.0.864.67","retrieval_b5",3,"SS6",8,846.899999991059,"sharkB.png",1,0,0,"recon_trial","SS6",5,3,"pred","pet store.png",5,2,"cuttlefishB.png",NA,NA,NA
"14/07/2021 20:18:10","14/07/2021 13:18:02",56975,3,4266017,"60ee922fcc2b54102d237822","Edge 91.0.864.67","retrieval_b5",3,"SS6",9,1500.79999999702,"cuttlefishB.png",1,0,0,"recon_trial","SS6",5,3,"pred","pet store.png",6,3,"sharkB.png",NA,NA,NA
"14/07/2021 20:18:15","14/07/2021 13:18:07",56975,3,4266017,"60ee922fcc2b54102d237822","Edge 91.0.864.67","retrieval_b5",3,"SS6",11,3909,"strawberriesB.png",1,1,0,"recon_trial","SS6",5,1,"rand","grocery store.png",1,2,"strawberriesB.png",NA,NA,NA
"14/07/2021 20:18:18","14/07/2021 13:18:11",56975,3,4266017,"60ee922fcc2b54102d237822","Edge 91.0.864.67","retrieval_b5",3,"SS6",12,3334,"donutB.png",1,1,0,"recon_trial","SS6",5,1,"rand","grocery store.png",2,3,"donutB.png",NA,NA,NA
"14/07/2021 20:18:20","14/07/2021 13:18:12",56975,3,4266017,"60ee922fcc2b54102d237822","Edge 91.0.864.67","retrieval_b5",3,"SS6",13,1652.39999999106,"cantaloupeB.png",1,1,0,"recon_trial","SS6",5,1,"rand","grocery store.png",3,1,"cantaloupeB.png",NA,NA,NA
"14/07/2021 20:18:26","14/07/2021 13:18:19",56975,3,4266017,"60ee922fcc2b54102d237822","Edge 91.0.864.67","retrieval_b5",3,"SS6",14,6470.89999999106,"muffinB.png",1,0,0,"recon_trial","SS6",5,1,"rand","grocery store.png",4,3,"pineappleB.png",NA,NA,NA
"14/07/2021 20:18:28","14/07/2021 13:18:20",56975,3,4266017,"60ee922fcc2b54102d237822","Edge 91.0.864.67","retrieval_b5",3,"SS6",15,1049.89999999106,"carrotsB.png",1,0,0,"recon_trial","SS6",5,1,"rand","grocery store.png",5,4,"muffinB.png",NA,NA,NA
"14/07/2021 20:18:29","14/07/2021 13:18:21",56975,3,4266017,"60ee922fcc2b54102d237822","Edge 91.0.864.67","retrieval_b5",3,"SS6",16,1161.59999999404,"pineappleB.png",1,0,0,"recon_trial","SS6",5,1,"rand","grocery store.png",6,1,"carrotsB.png",NA,NA,NA
"14/07/2021 20:21:26","14/07/2021 13:21:19",56975,3,4266017,"60ee922fcc2b54102d237822","Edge 91.0.864.67","retrieval_b6",3,"SS6",4,3261.70000000298,"eagleB.png",1,1,0,"recon_trial","SS6",6,3,"pred","pet store.png",1,1,"eagleB.png",NA,NA,NA
"14/07/2021 20:21:28","14/07/2021 13:21:21",56975,3,4266017,"60ee922fcc2b54102d237822","Edge 91.0.864.67","retrieval_b6",3,"SS6",5,1976.90000000596,"beetleB.png",1,1,0,"recon_trial","SS6",6,3,"pred","pet store.png",2,4,"beetleB.png",NA,NA,NA
"14/07/2021 20:21:31","14/07/2021 13:21:24",56975,3,4266017,"60ee922fcc2b54102d237822","Edge 91.0.864.67","retrieval_b6",3,"SS6",6,2949.79999999702,"pufferfishB.png",1,1,0,"recon_trial","SS6",6,3,"pred","pet store.png",3,3,"pufferfishB.png",NA,NA,NA
"14/07/2021 20:21:36","14/07/2021 13:21:28",56975,3,4266017,"60ee922fcc2b54102d237822","Edge 91.0.864.67","retrieval_b6",3,"SS6",7,4551.70000000298,"vultureB.png",1,1,0,"recon_trial","SS6",6,3,"pred","pet store.png",4,4,"vultureB.png",NA,NA,NA
"14/07/2021 20:21:37","14/07/2021 13:21:29",56975,3,4266017,"60ee922fcc2b54102d237822","Edge 91.0.864.67","retrieval_b6",3,"SS6",8,990.90000000596,"frogB.png",1,1,0,"recon_trial","SS6",6,3,"pred","pet store.png",5,2,"frogB.png",NA,NA,NA
"14/07/2021 20:21:38","14/07/2021 13:21:30",56975,3,4266017,"60ee922fcc2b54102d237822","Edge 91.0.864.67","retrieval_b6",3,"SS6",9,953.5,"octopusB.png",1,1,0,"recon_trial","SS6",6,3,"pred","pet store.png",6,3,"octopusB.png",NA,NA,NA
"14/07/2021 20:21:44","14/07/2021 13:21:37",56975,3,4266017,"60ee922fcc2b54102d237822","Edge 91.0.864.67","retrieval_b6",3,"SS6",11,5598.89999999106,"ramenB.png",1,1,0,"recon_trial","SS6",6,4,"rand","grocery store.png",1,3,"ramenB.png",NA,NA,NA
"14/07/2021 20:21:50","14/07/2021 13:21:42",56975,3,4266017,"60ee922fcc2b54102d237822","Edge 91.0.864.67","retrieval_b6",3,"SS6",12,5349.10000000894,"cabbageB.png",1,1,0,"recon_trial","SS6",6,4,"rand","grocery store.png",2,1,"cabbageB.png",NA,NA,NA
"14/07/2021 20:21:51","14/07/2021 13:21:44",56975,3,4266017,"60ee922fcc2b54102d237822","Edge 91.0.864.67","retrieval_b6",3,"SS6",13,1704.80000001192,"peachesB.png",1,1,0,"recon_trial","SS6",6,4,"rand","grocery store.png",3,4,"peachesB.png",NA,NA,NA
"14/07/2021 20:21:52","14/07/2021 13:21:45",56975,3,4266017,"60ee922fcc2b54102d237822","Edge 91.0.864.67","retrieval_b6",3,"SS6",14,996.29999999702,"peanutbutterB.png",1,1,0,"recon_trial","SS6",6,4,"rand","grocery store.png",4,2,"peanutbutterB.png",NA,NA,NA
"14/07/2021 20:21:54","14/07/2021 13:21:47",56975,3,4266017,"60ee922fcc2b54102d237822","Edge 91.0.864.67","retrieval_b6",3,"SS6",15,1730.20000000298,"granolaB.png",1,0,0,"recon_trial","SS6",6,4,"rand","grocery store.png",5,4,"clamsB.png",NA,NA,NA
"14/07/2021 20:21:55","14/07/2021 13:21:47",56975,3,4266017,"60ee922fcc2b54102d237822","Edge 91.0.864.67","retrieval_b6",3,"SS6",16,697.29999999702,"clamsB.png",1,0,0,"recon_trial","SS6",6,4,"rand","grocery store.png",6,1,"granolaB.png",NA,NA,NA
"14/07/2021 20:24:50","14/07/2021 13:24:43",56975,3,4266017,"60ee922fcc2b54102d237822","Edge 91.0.864.67","retrieval_b7",3,"SS6",11,2988.29999999702,"smoresB.png",1,1,0,"recon_trial","SS6",7,2,"rand","grocery store.png",1,2,"smoresB.png",NA,NA,NA
"14/07/2021 20:24:52","14/07/2021 13:24:44",56975,3,4266017,"60ee922fcc2b54102d237822","Edge 91.0.864.67","retrieval_b7",3,"SS6",12,1333.10000000894,"butterB.png",1,1,0,"recon_trial","SS6",7,2,"rand","grocery store.png",2,3,"butterB.png",NA,NA,NA
"14/07/2021 20:25:00","14/07/2021 13:24:52",56975,3,4266017,"60ee922fcc2b54102d237822","Edge 91.0.864.67","retrieval_b7",3,"SS6",13,7803.09999999404,"coffeeB.png",1,1,0,"recon_trial","SS6",7,2,"rand","grocery store.png",3,1,"coffeeB.png",NA,NA,NA
"14/07/2021 20:25:02","14/07/2021 13:24:54",56975,3,4266017,"60ee922fcc2b54102d237822","Edge 91.0.864.67","retrieval_b7",3,"SS6",14,2113,"pizzaB.png",1,1,0,"recon_trial","SS6",7,2,"rand","grocery store.png",4,4,"pizzaB.png",NA,NA,NA
"14/07/2021 20:25:03","14/07/2021 13:24:55",56975,3,4266017,"60ee922fcc2b54102d237822","Edge 91.0.864.67","retrieval_b7",3,"SS6",15,1056,"potatochipsB.png",1,1,0,"recon_trial","SS6",7,2,"rand","grocery store.png",5,1,"potatochipsB.png",NA,NA,NA
"14/07/2021 20:25:04","14/07/2021 13:24:56",56975,3,4266017,"60ee922fcc2b54102d237822","Edge 91.0.864.67","retrieval_b7",3,"SS6",16,764.70000000298,"cupnoodleB.png",1,1,0,"recon_trial","SS6",7,2,"rand","grocery store.png",6,3,"cupnoodleB.png",NA,NA,NA
"14/07/2021 20:25:09","14/07/2021 13:25:01",56975,3,4266017,"60ee922fcc2b54102d237822","Edge 91.0.864.67","retrieval_b7",3,"SS6",4,4210.70000000298,"emuB.png",1,1,0,"recon_trial","SS6",7,1,"pred","pet store.png",1,1,"emuB.png",NA,NA,NA
"14/07/2021 20:25:12","14/07/2021 13:25:05",56975,3,4266017,"60ee922fcc2b54102d237822","Edge 91.0.864.67","retrieval_b7",3,"SS6",5,3349.90000000596,"stingrayB.png",1,1,0,"recon_trial","SS6",7,1,"pred","pet store.png",2,4,"stingrayB.png",NA,NA,NA
"14/07/2021 20:25:15","14/07/2021 13:25:07",56975,3,4266017,"60ee922fcc2b54102d237822","Edge 91.0.864.67","retrieval_b7",3,"SS6",6,2525.40000000596,"armadilloB.png",1,1,0,"recon_trial","SS6",7,1,"pred","pet store.png",3,3,"armadilloB.png",NA,NA,NA
"14/07/2021 20:25:18","14/07/2021 13:25:11",56975,3,4266017,"60ee922fcc2b54102d237822","Edge 91.0.864.67","retrieval_b7",3,"SS6",7,3540.39999999106,"bisonB.png",1,0,0,"recon_trial","SS6",7,1,"pred","pet store.png",4,4,"canadiangooseB.png",NA,NA,NA
"14/07/2021 20:25:20","14/07/2021 13:25:12",56975,3,4266017,"60ee922fcc2b54102d237822","Edge 91.0.864.67","retrieval_b7",3,"SS6",8,1530.39999999106,"lionB.png",1,0,0,"recon_trial","SS6",7,1,"pred","pet store.png",5,2,"bisonB.png",NA,NA,NA
"14/07/2021 20:25:21","14/07/2021 13:25:14",56975,3,4266017,"60ee922fcc2b54102d237822","Edge 91.0.864.67","retrieval_b7",3,"SS6",9,1120.70000000298,"canadiangooseB.png",1,0,0,"recon_trial","SS6",7,1,"pred","pet store.png",6,3,"lionB.png",NA,NA,NA
"14/07/2021 20:28:07","14/07/2021 13:28:00",56975,3,4266017,"60ee922fcc2b54102d237822","Edge 91.0.864.67","retrieval_b8",3,"SS6",4,2677.80000001192,"owlB.png",1,1,0,"recon_trial","SS6",8,2,"pred","pet store.png",1,1,"owlB.png",NA,NA,NA
"14/07/2021 20:28:17","14/07/2021 13:28:10",56975,3,4266017,"60ee922fcc2b54102d237822","Edge 91.0.864.67","retrieval_b8",3,"SS6",5,9909.70000000298,"snakeB.png",1,1,0,"recon_trial","SS6",8,2,"pred","pet store.png",2,4,"snakeB.png",NA,NA,NA
"14/07/2021 20:28:21","14/07/2021 13:28:13",56975,3,4266017,"60ee922fcc2b54102d237822","Edge 91.0.864.67","retrieval_b8",3,"SS6",6,3237.89999999106,"koalaB.png",1,1,0,"recon_trial","SS6",8,2,"pred","pet store.png",3,3,"koalaB.png",NA,NA,NA
"14/07/2021 20:28:22","14/07/2021 13:28:14",56975,3,4266017,"60ee922fcc2b54102d237822","Edge 91.0.864.67","retrieval_b8",3,"SS6",7,814.800000011921,"foxB.png",1,0,0,"recon_trial","SS6",8,2,"pred","pet store.png",4,4,"dragonflyB.png",NA,NA,NA
"14/07/2021 20:28:22","14/07/2021 13:28:15",56975,3,4266017,"60ee922fcc2b54102d237822","Edge 91.0.864.67","retrieval_b8",3,"SS6",8,816.5,"dragonflyB.png",1,0,0,"recon_trial","SS6",8,2,"pred","pet store.png",5,2,"llamaB.png",NA,NA,NA
"14/07/2021 20:28:23","14/07/2021 13:28:15",56975,3,4266017,"60ee922fcc2b54102d237822","Edge 91.0.864.67","retrieval_b8",3,"SS6",9,451.90000000596,"llamaB.png",1,0,0,"recon_trial","SS6",8,2,"pred","pet store.png",6,3,"foxB.png",NA,NA,NA
"14/07/2021 20:28:28","14/07/2021 13:28:20",56975,3,4266017,"60ee922fcc2b54102d237822","Edge 91.0.864.67","retrieval_b8",3,"SS6",11,3744,"hummusB.png",1,1,0,"recon_trial","SS6",8,1,"rand","grocery store.png",1,3,"hummusB.png",NA,NA,NA
"14/07/2021 20:28:29","14/07/2021 13:28:22",56975,3,4266017,"60ee922fcc2b54102d237822","Edge 91.0.864.67","retrieval_b8",3,"SS6",12,1700.5,"blackpepperB.png",1,1,0,"recon_trial","SS6",8,1,"rand","grocery store.png",2,2,"blackpepperB.png",NA,NA,NA
"14/07/2021 20:28:31","14/07/2021 13:28:23",56975,3,4266017,"60ee922fcc2b54102d237822","Edge 91.0.864.67","retrieval_b8",3,"SS6",13,1318.70000000298,"baconB.png",1,1,0,"recon_trial","SS6",8,1,"rand","grocery store.png",3,4,"baconB.png",NA,NA,NA
"14/07/2021 20:28:33","14/07/2021 13:28:25",56975,3,4266017,"60ee922fcc2b54102d237822","Edge 91.0.864.67","retrieval_b8",3,"SS6",14,1853.60000000894,"cherriesB.png",1,1,0,"recon_trial","SS6",8,1,"rand","grocery store.png",4,1,"cherriesB.png",NA,NA,NA
"14/07/2021 20:28:35","14/07/2021 13:28:27",56975,3,4266017,"60ee922fcc2b54102d237822","Edge 91.0.864.67","retrieval_b8",3,"SS6",15,2274,"gummybearsB.png",1,0,0,"recon_trial","SS6",8,1,"rand","grocery store.png",5,2,"acornsquashB.png",NA,NA,NA
"14/07/2021 20:28:36","14/07/2021 13:28:28",56975,3,4266017,"60ee922fcc2b54102d237822","Edge 91.0.864.67","retrieval_b8",3,"SS6",16,905.70000000298,"acornsquashB.png",1,0,0,"recon_trial","SS6",8,1,"rand","grocery store.png",6,1,"gummybearsB.png",NA,NA,NA
"30/07/2021 14:09:35","30/07/2021 10:09:35",56975,3,4382111,"60fead405d4fefc6731afbcc","Chrome 92.0.4515.107","retrieval_b1",4,"SS7",4,6565.80000001192,"pieB.png",1,1,0,"recon_trial","SS7",1,2,"pred","grocery store.png",1,3,"pieB.png",NA,NA,NA
"30/07/2021 14:09:40","30/07/2021 10:09:40",56975,3,4382111,"60fead405d4fefc6731afbcc","Chrome 92.0.4515.107","retrieval_b1",4,"SS7",5,4917.70000004768,"chocolatemilkB.png",1,1,0,"recon_trial","SS7",1,2,"pred","grocery store.png",2,2,"chocolatemilkB.png",NA,NA,NA
"30/07/2021 14:09:43","30/07/2021 10:09:43",56975,3,4382111,"60fead405d4fefc6731afbcc","Chrome 92.0.4515.107","retrieval_b1",4,"SS7",6,2919.40000003576,"lemonB.png",1,1,0,"recon_trial","SS7",1,2,"pred","grocery store.png",3,4,"lemonB.png",NA,NA,NA
"30/07/2021 14:09:45","30/07/2021 10:09:45",56975,3,4382111,"60fead405d4fefc6731afbcc","Chrome 92.0.4515.107","retrieval_b1",4,"SS7",7,1628.70000004768,"appleB.png",1,1,0,"recon_trial","SS7",1,2,"pred","grocery store.png",4,2,"appleB.png",NA,NA,NA
"30/07/2021 14:09:47","30/07/2021 10:09:47",56975,3,4382111,"60fead405d4fefc6731afbcc","Chrome 92.0.4515.107","retrieval_b1",4,"SS7",8,2283.5,"broccoliB.png",1,1,0,"recon_trial","SS7",1,2,"pred","grocery store.png",5,1,"broccoliB.png",NA,NA,NA
"30/07/2021 14:09:48","30/07/2021 10:09:48",56975,3,4382111,"60fead405d4fefc6731afbcc","Chrome 92.0.4515.107","retrieval_b1",4,"SS7",9,1119.10000002384,"cakeB.png",1,1,0,"recon_trial","SS7",1,2,"pred","grocery store.png",6,4,"cakeB.png",NA,NA,NA
"30/07/2021 14:09:54","30/07/2021 10:09:54",56975,3,4382111,"60fead405d4fefc6731afbcc","Chrome 92.0.4515.107","retrieval_b1",4,"SS7",11,4518.5,"gooseB.png",1,1,0,"recon_trial","SS7",1,4,"rand","pet store.png",1,4,"gooseB.png",NA,NA,NA
"30/07/2021 14:09:58","30/07/2021 10:09:58",56975,3,4382111,"60fead405d4fefc6731afbcc","Chrome 92.0.4515.107","retrieval_b1",4,"SS7",12,4253,"seahorseB.png",1,0,0,"recon_trial","SS7",1,4,"rand","pet store.png",2,2,"killerwhaleB.png",NA,NA,NA
"30/07/2021 14:10:13","30/07/2021 10:10:13",56975,3,4382111,"60fead405d4fefc6731afbcc","Chrome 92.0.4515.107","retrieval_b1",4,"SS7",13,14999.4,NA,NA,0,0,"recon_trial","SS7",1,4,"rand","pet store.png",3,3,"lionB.png",NA,NA,NA
"30/07/2021 14:10:15","30/07/2021 10:10:14",56975,3,4382111,"60fead405d4fefc6731afbcc","Chrome 92.0.4515.107","retrieval_b1",4,"SS7",14,1334.69999998808,"lionB.png",1,0,0,"recon_trial","SS7",1,4,"rand","pet store.png",4,1,"sharkB.png",NA,NA,NA
"30/07/2021 14:10:23","30/07/2021 10:10:23",56975,3,4382111,"60fead405d4fefc6731afbcc","Chrome 92.0.4515.107","retrieval_b1",4,"SS7",15,8262.69999998808,"killerwhaleB.png",1,0,0,"recon_trial","SS7",1,4,"rand","pet store.png",5,2,"seahorseB.png",NA,NA,NA
"30/07/2021 14:10:26","30/07/2021 10:10:26",56975,3,4382111,"60fead405d4fefc6731afbcc","Chrome 92.0.4515.107","retrieval_b1",4,"SS7",16,3394.69999998808,"sharkB.png",1,0,0,"recon_trial","SS7",1,4,"rand","pet store.png",6,1,"dolphinB.png",NA,NA,NA
"30/07/2021 14:13:45","30/07/2021 10:13:45",56975,3,4382111,"60fead405d4fefc6731afbcc","Chrome 92.0.4515.107","retrieval_b2",3,"SS7",11,4889.20000004768,"deerB.png",1,1,0,"recon_trial","SS7",2,4,"rand","pet store.png",1,2,"deerB.png",NA,NA,NA
"30/07/2021 14:13:51","30/07/2021 10:13:51",56975,3,4382111,"60fead405d4fefc6731afbcc","Chrome 92.0.4515.107","retrieval_b2",3,"SS7",12,6346.30000001192,"pantherB.png",1,1,0,"recon_trial","SS7",2,4,"rand","pet store.png",2,1,"pantherB.png",NA,NA,NA
"30/07/2021 14:13:56","30/07/2021 10:13:56",56975,3,4382111,"60fead405d4fefc6731afbcc","Chrome 92.0.4515.107","retrieval_b2",3,"SS7",13,4970.90000003576,"hermitcrabB.png",1,1,0,"recon_trial","SS7",2,4,"rand","pet store.png",3,4,"hermitcrabB.png",NA,NA,NA
"30/07/2021 14:13:58","30/07/2021 10:13:58",56975,3,4382111,"60fead405d4fefc6731afbcc","Chrome 92.0.4515.107","retrieval_b2",3,"SS7",14,1602.5,"donkeyB.png",1,0,0,"recon_trial","SS7",2,4,"rand","pet store.png",4,3,"penguinB.png",NA,NA,NA
"30/07/2021 14:13:59","30/07/2021 10:13:59",56975,3,4382111,"60fead405d4fefc6731afbcc","Chrome 92.0.4515.107","retrieval_b2",3,"SS7",15,1548.19999998808,"penguinB.png",1,0,0,"recon_trial","SS7",2,4,"rand","pet store.png",5,4,"donkeyB.png",NA,NA,NA
"30/07/2021 14:14:02","30/07/2021 10:14:01",56975,3,4382111,"60fead405d4fefc6731afbcc","Chrome 92.0.4515.107","retrieval_b2",3,"SS7",16,2167.89999997616,"lemurB.png",1,1,0,"recon_trial","SS7",2,4,"rand","pet store.png",6,1,"lemurB.png",NA,NA,NA
"30/07/2021 14:14:05","30/07/2021 10:14:05",56975,3,4382111,"60fead405d4fefc6731afbcc","Chrome 92.0.4515.107","retrieval_b2",3,"SS7",4,2562.79999995232,"cookiesB.png",1,1,0,"recon_trial","SS7",2,3,"pred","grocery store.png",1,3,"cookiesB.png",NA,NA,NA
"30/07/2021 14:14:06","30/07/2021 10:14:06",56975,3,4382111,"60fead405d4fefc6731afbcc","Chrome 92.0.4515.107","retrieval_b2",3,"SS7",5,1268.69999998808,"tacoB.png",1,1,0,"recon_trial","SS7",2,3,"pred","grocery store.png",2,2,"tacoB.png",NA,NA,NA
"30/07/2021 14:14:08","30/07/2021 10:14:08",56975,3,4382111,"60fead405d4fefc6731afbcc","Chrome 92.0.4515.107","retrieval_b2",3,"SS7",6,1449.59999996424,"pretzelB.png",1,1,0,"recon_trial","SS7",2,3,"pred","grocery store.png",3,4,"pretzelB.png",NA,NA,NA
"30/07/2021 14:14:12","30/07/2021 10:14:12",56975,3,4382111,"60fead405d4fefc6731afbcc","Chrome 92.0.4515.107","retrieval_b2",3,"SS7",7,3834.90000003576,"cerealB.png",1,1,0,"recon_trial","SS7",2,3,"pred","grocery store.png",4,2,"cerealB.png",NA,NA,NA
"30/07/2021 14:14:13","30/07/2021 10:14:13",56975,3,4382111,"60fead405d4fefc6731afbcc","Chrome 92.0.4515.107","retrieval_b2",3,"SS7",8,1110.19999998808,"seaweedB.png",1,1,0,"recon_trial","SS7",2,3,"pred","grocery store.png",5,1,"seaweedB.png",NA,NA,NA
"30/07/2021 14:14:13","30/07/2021 10:14:13",56975,3,4382111,"60fead405d4fefc6731afbcc","Chrome 92.0.4515.107","retrieval_b2",3,"SS7",9,530,"dumplingsB.png",1,1,0,"recon_trial","SS7",2,3,"pred","grocery store.png",6,4,"dumplingsB.png",NA,NA,NA
"30/07/2021 14:17:04","30/07/2021 10:17:04",56975,3,4382111,"60fead405d4fefc6731afbcc","Chrome 92.0.4515.107","retrieval_b3",3,"SS7",4,4669.60000002384,"kiwiB.png",1,1,0,"recon_trial","SS7",3,2,"pred","grocery store.png",1,3,"kiwiB.png",NA,NA,NA
"30/07/2021 14:17:07","30/07/2021 10:17:07",56975,3,4382111,"60fead405d4fefc6731afbcc","Chrome 92.0.4515.107","retrieval_b3",3,"SS7",5,2397.70000004768,"ramenB.png",1,1,0,"recon_trial","SS7",3,2,"pred","grocery store.png",2,2,"ramenB.png",NA,NA,NA
"30/07/2021 14:17:16","30/07/2021 10:17:16",56975,3,4382111,"60fead405d4fefc6731afbcc","Chrome 92.0.4515.107","retrieval_b3",3,"SS7",6,8880.39999997616,"mustardB.png",1,1,0,"recon_trial","SS7",3,2,"pred","grocery store.png",3,4,"mustardB.png",NA,NA,NA
"30/07/2021 14:17:17","30/07/2021 10:17:17",56975,3,4382111,"60fead405d4fefc6731afbcc","Chrome 92.0.4515.107","retrieval_b3",3,"SS7",7,1098.30000001192,"avocadoB.png",1,1,0,"recon_trial","SS7",3,2,"pred","grocery store.png",4,2,"avocadoB.png",NA,NA,NA
"30/07/2021 14:17:18","30/07/2021 10:17:18",56975,3,4382111,"60fead405d4fefc6731afbcc","Chrome 92.0.4515.107","retrieval_b3",3,"SS7",8,893.5,"baconB.png",1,1,0,"recon_trial","SS7",3,2,"pred","grocery store.png",5,1,"baconB.png",NA,NA,NA
"30/07/2021 14:17:18","30/07/2021 10:17:18",56975,3,4382111,"60fead405d4fefc6731afbcc","Chrome 92.0.4515.107","retrieval_b3",3,"SS7",9,575,"blackpepperB.png",1,1,0,"recon_trial","SS7",3,2,"pred","grocery store.png",6,4,"blackpepperB.png",NA,NA,NA
"30/07/2021 14:17:28","30/07/2021 10:17:28",56975,3,4382111,"60fead405d4fefc6731afbcc","Chrome 92.0.4515.107","retrieval_b3",3,"SS7",11,8657.80000001192,"ferretB.png",1,1,0,"recon_trial","SS7",3,1,"rand","pet store.png",1,4,"ferretB.png",NA,NA,NA
"30/07/2021 14:17:31","30/07/2021 10:17:30",56975,3,4382111,"60fead405d4fefc6731afbcc","Chrome 92.0.4515.107","retrieval_b3",3,"SS7",12,2255.30000001192,"chimpB.png",1,1,0,"recon_trial","SS7",3,1,"rand","pet store.png",2,2,"chimpB.png",NA,NA,NA
"30/07/2021 14:17:38","30/07/2021 10:17:38",56975,3,4382111,"60fead405d4fefc6731afbcc","Chrome 92.0.4515.107","retrieval_b3",3,"SS7",13,7740.69999998808,"rhinoB.png",1,1,0,"recon_trial","SS7",3,1,"rand","pet store.png",3,3,"rhinoB.png",NA,NA,NA
"30/07/2021 14:17:42","30/07/2021 10:17:41",56975,3,4382111,"60fead405d4fefc6731afbcc","Chrome 92.0.4515.107","retrieval_b3",3,"SS7",14,3188,"badgerB.png",1,1,0,"recon_trial","SS7",3,1,"rand","pet store.png",4,1,"badgerB.png",NA,NA,NA
"30/07/2021 14:17:50","30/07/2021 10:17:50",56975,3,4382111,"60fead405d4fefc6731afbcc","Chrome 92.0.4515.107","retrieval_b3",3,"SS7",15,8225.5,"whaleB.png",1,0,0,"recon_trial","SS7",3,1,"rand","pet store.png",5,3,"octopusB.png",NA,NA,NA
"30/07/2021 14:17:51","30/07/2021 10:17:50",56975,3,4382111,"60fead405d4fefc6731afbcc","Chrome 92.0.4515.107","retrieval_b3",3,"SS7",16,765.099999964237,"octopusB.png",1,0,0,"recon_trial","SS7",3,1,"rand","pet store.png",6,2,"whaleB.png",NA,NA,NA
"30/07/2021 14:20:39","30/07/2021 10:20:39",56975,3,4382111,"60fead405d4fefc6731afbcc","Chrome 92.0.4515.107","retrieval_b4",3,"SS7",4,2820.70000004768,"nachosB.png",1,1,0,"recon_trial","SS7",4,3,"pred","grocery store.png",1,3,"nachosB.png",NA,NA,NA
"30/07/2021 14:20:51","30/07/2021 10:20:51",56975,3,4382111,"60fead405d4fefc6731afbcc","Chrome 92.0.4515.107","retrieval_b4",3,"SS7",5,12192.8000000119,"cherriesB.png",1,0,0,"recon_trial","SS7",4,3,"pred","grocery store.png",2,2,"peachesB.png",NA,NA,NA
"30/07/2021 14:20:53","30/07/2021 10:20:52",56975,3,4382111,"60fead405d4fefc6731afbcc","Chrome 92.0.4515.107","retrieval_b4",3,"SS7",6,1288.30000001192,"peachesB.png",1,0,0,"recon_trial","SS7",4,3,"pred","grocery store.png",3,4,"cherriesB.png",NA,NA,NA
"30/07/2021 14:20:56","30/07/2021 10:20:56",56975,3,4382111,"60fead405d4fefc6731afbcc","Chrome 92.0.4515.107","retrieval_b4",3,"SS7",7,3201.09999996424,"potatochipsB.png",1,1,0,"recon_trial","SS7",4,3,"pred","grocery store.png",4,2,"potatochipsB.png",NA,NA,NA
"30/07/2021 14:20:57","30/07/2021 10:20:57",56975,3,4382111,"60fead405d4fefc6731afbcc","Chrome 92.0.4515.107","retrieval_b4",3,"SS7",8,1263.90000003576,"donutB.png",1,1,0,"recon_trial","SS7",4,3,"pred","grocery store.png",5,1,"donutB.png",NA,NA,NA
"30/07/2021 14:20:58","30/07/2021 10:20:58",56975,3,4382111,"60fead405d4fefc6731afbcc","Chrome 92.0.4515.107","retrieval_b4",3,"SS7",9,564.300000011921,"onionB.png",1,1,0,"recon_trial","SS7",4,3,"pred","grocery store.png",6,4,"onionB.png",NA,NA,NA
"30/07/2021 14:21:06","30/07/2021 10:21:06",56975,3,4382111,"60fead405d4fefc6731afbcc","Chrome 92.0.4515.107","retrieval_b4",3,"SS7",11,7300.70000004768,"hippoB.png",1,1,0,"recon_trial","SS7",4,1,"rand","pet store.png",1,4,"hippoB.png",NA,NA,NA
"30/07/2021 14:21:07","30/07/2021 10:21:07",56975,3,4382111,"60fead405d4fefc6731afbcc","Chrome 92.0.4515.107","retrieval_b4",3,"SS7",12,1255.60000002384,"crocodileB.png",1,1,0,"recon_trial","SS7",4,1,"rand","pet store.png",2,3,"crocodileB.png",NA,NA,NA
"30/07/2021 14:21:08","30/07/2021 10:21:08",56975,3,4382111,"60fead405d4fefc6731afbcc","Chrome 92.0.4515.107","retrieval_b4",3,"SS7",13,1172.69999998808,"cowB.png",1,1,0,"recon_trial","SS7",4,1,"rand","pet store.png",3,1,"cowB.png",NA,NA,NA
"30/07/2021 14:21:15","30/07/2021 10:21:15",56975,3,4382111,"60fead405d4fefc6731afbcc","Chrome 92.0.4515.107","retrieval_b4",3,"SS7",14,6728.30000001192,"ostrichB.png",1,0,0,"recon_trial","SS7",4,1,"rand","pet store.png",4,2,"bearB.png",NA,NA,NA
"30/07/2021 14:21:16","30/07/2021 10:21:16",56975,3,4382111,"60fead405d4fefc6731afbcc","Chrome 92.0.4515.107","retrieval_b4",3,"SS7",15,1153,"eagleB.png",1,1,0,"recon_trial","SS7",4,1,"rand","pet store.png",5,1,"eagleB.png",NA,NA,NA
"30/07/2021 14:21:17","30/07/2021 10:21:17",56975,3,4382111,"60fead405d4fefc6731afbcc","Chrome 92.0.4515.107","retrieval_b4",3,"SS7",16,814.399999976158,"bearB.png",1,0,0,"recon_trial","SS7",4,1,"rand","pet store.png",6,3,"ostrichB.png",NA,NA,NA
"30/07/2021 14:25:30","30/07/2021 10:25:30",56975,3,4382111,"60fead405d4fefc6731afbcc","Chrome 92.0.4515.107","retrieval_b5",3,"SS7",11,5172.80000001192,"koalaB.png",1,1,0,"recon_trial","SS7",5,3,"rand","pet store.png",1,4,"koalaB.png",NA,NA,NA
"30/07/2021 14:25:32","30/07/2021 10:25:32",56975,3,4382111,"60fead405d4fefc6731afbcc","Chrome 92.0.4515.107","retrieval_b5",3,"SS7",12,1718.10000002384,"dragonflyB.png",1,1,0,"recon_trial","SS7",5,3,"rand","pet store.png",2,2,"dragonflyB.png",NA,NA,NA
"30/07/2021 14:25:47","30/07/2021 10:25:47",56975,3,4382111,"60fead405d4fefc6731afbcc","Chrome 92.0.4515.107","retrieval_b5",3,"SS7",13,14994.897,NA,NA,0,0,"recon_trial","SS7",5,3,"rand","pet store.png",3,1,"squidB.png",NA,NA,NA
"30/07/2021 14:25:56","30/07/2021 10:25:56",56975,3,4382111,"60fead405d4fefc6731afbcc","Chrome 92.0.4515.107","retrieval_b5",3,"SS7",14,8695.19999998808,"polarbearB.png",1,1,0,"recon_trial","SS7",5,3,"rand","pet store.png",4,3,"polarbearB.png",NA,NA,NA
"30/07/2021 14:26:02","30/07/2021 10:26:02",56975,3,4382111,"60fead405d4fefc6731afbcc","Chrome 92.0.4515.107","retrieval_b5",3,"SS7",15,6157.19999998808,"squidB.png",1,0,0,"recon_trial","SS7",5,3,"rand","pet store.png",5,2,"chickenB.png",NA,NA,NA
"30/07/2021 14:26:03","30/07/2021 10:26:03",56975,3,4382111,"60fead405d4fefc6731afbcc","Chrome 92.0.4515.107","retrieval_b5",3,"SS7",16,1040.09999996424,"chickenB.png",1,0,0,"recon_trial","SS7",5,3,"rand","pet store.png",6,3,"snailB.png",NA,NA,NA
"30/07/2021 14:26:09","30/07/2021 10:26:09",56975,3,4382111,"60fead405d4fefc6731afbcc","Chrome 92.0.4515.107","retrieval_b5",3,"SS7",4,4641.69999998808,"tomatoB.png",1,1,0,"recon_trial","SS7",5,4,"pred","grocery store.png",1,3,"tomatoB.png",NA,NA,NA
"30/07/2021 14:26:16","30/07/2021 10:26:15",56975,3,4382111,"60fead405d4fefc6731afbcc","Chrome 92.0.4515.107","retrieval_b5",3,"SS7",5,6633.80000001192,"cabbageB.png",1,1,0,"recon_trial","SS7",5,4,"pred","grocery store.png",2,2,"cabbageB.png",NA,NA,NA
"30/07/2021 14:26:20","30/07/2021 10:26:20",56975,3,4382111,"60fead405d4fefc6731afbcc","Chrome 92.0.4515.107","retrieval_b5",3,"SS7",6,4460.10000002384,"cheeseB.png",1,1,0,"recon_trial","SS7",5,4,"pred","grocery store.png",3,4,"cheeseB.png",NA,NA,NA
"30/07/2021 14:26:22","30/07/2021 10:26:21",56975,3,4382111,"60fead405d4fefc6731afbcc","Chrome 92.0.4515.107","retrieval_b5",3,"SS7",7,1550.60000002384,"peanutbutterB.png",1,0,0,"recon_trial","SS7",5,4,"pred","grocery store.png",4,2,"lycheeB.png",NA,NA,NA
"30/07/2021 14:26:24","30/07/2021 10:26:24",56975,3,4382111,"60fead405d4fefc6731afbcc","Chrome 92.0.4515.107","retrieval_b5",3,"SS7",8,2169.29999995232,"lycheeB.png",1,0,0,"recon_trial","SS7",5,4,"pred","grocery store.png",5,1,"peanutbutterB.png",NA,NA,NA
"30/07/2021 14:26:24","30/07/2021 10:26:24",56975,3,4382111,"60fead405d4fefc6731afbcc","Chrome 92.0.4515.107","retrieval_b5",3,"SS7",9,594.100000023842,"muffinB.png",1,1,0,"recon_trial","SS7",5,4,"pred","grocery store.png",6,4,"muffinB.png",NA,NA,NA
"30/07/2021 14:29:58","30/07/2021 10:29:58",56975,3,4382111,"60fead405d4fefc6731afbcc","Chrome 92.0.4515.107","retrieval_b6",3,"SS7",4,2810.89999997616,"orangeB.png",1,1,0,"recon_trial","SS7",6,1,"pred","grocery store.png",1,3,"orangeB.png",NA,NA,NA
"30/07/2021 14:30:00","30/07/2021 10:30:00",56975,3,4382111,"60fead405d4fefc6731afbcc","Chrome 92.0.4515.107","retrieval_b6",3,"SS7",5,1965.19999998808,"riceB.png",1,1,0,"recon_trial","SS7",6,1,"pred","grocery store.png",2,2,"riceB.png",NA,NA,NA
"30/07/2021 14:30:03","30/07/2021 10:30:02",56975,3,4382111,"60fead405d4fefc6731afbcc","Chrome 92.0.4515.107","retrieval_b6",3,"SS7",6,2433.5,"ravioliB.png",1,1,0,"recon_trial","SS7",6,1,"pred","grocery store.png",3,4,"ravioliB.png",NA,NA,NA
"30/07/2021 14:30:04","30/07/2021 10:30:04",56975,3,4382111,"60fead405d4fefc6731afbcc","Chrome 92.0.4515.107","retrieval_b6",3,"SS7",7,1256.89999997616,"burritoB.png",1,1,0,"recon_trial","SS7",6,1,"pred","grocery store.png",4,2,"burritoB.png",NA,NA,NA
"30/07/2021 14:30:05","30/07/2021 10:30:05",56975,3,4382111,"60fead405d4fefc6731afbcc","Chrome 92.0.4515.107","retrieval_b6",3,"SS7",8,1609.30000001192,"artichokeB.png",1,1,0,"recon_trial","SS7",6,1,"pred","grocery store.png",5,1,"artichokeB.png",NA,NA,NA
"30/07/2021 14:30:06","30/07/2021 10:30:06",56975,3,4382111,"60fead405d4fefc6731afbcc","Chrome 92.0.4515.107","retrieval_b6",3,"SS7",9,756.699999988079,"acornsquashB.png",1,1,0,"recon_trial","SS7",6,1,"pred","grocery store.png",6,4,"acornsquashB.png",NA,NA,NA
"30/07/2021 14:30:22","30/07/2021 10:30:22",56975,3,4382111,"60fead405d4fefc6731afbcc","Chrome 92.0.4515.107","retrieval_b6",3,"SS7",11,13173.5,"tortoiseB.png",1,0,0,"recon_trial","SS7",6,2,"rand","pet store.png",1,2,"squirrelB.png",NA,NA,NA
"30/07/2021 14:30:30","30/07/2021 10:30:30",56975,3,4382111,"60fead405d4fefc6731afbcc","Chrome 92.0.4515.107","retrieval_b6",3,"SS7",12,7934.59999996424,"beetleB.png",1,0,0,"recon_trial","SS7",6,2,"rand","pet store.png",2,4,"foxB.png",NA,NA,NA
"30/07/2021 14:30:32","30/07/2021 10:30:32",56975,3,4382111,"60fead405d4fefc6731afbcc","Chrome 92.0.4515.107","retrieval_b6",3,"SS7",13,1798.90000003576,"bisonB.png",1,1,0,"recon_trial","SS7",6,2,"rand","pet store.png",3,3,"bisonB.png",NA,NA,NA
"30/07/2021 14:30:34","30/07/2021 10:30:34",56975,3,4382111,"60fead405d4fefc6731afbcc","Chrome 92.0.4515.107","retrieval_b6",3,"SS7",14,1807.40000003576,"foxB.png",1,0,0,"recon_trial","SS7",6,2,"rand","pet store.png",4,1,"tortoiseB.png",NA,NA,NA
"30/07/2021 14:30:36","30/07/2021 10:30:36",56975,3,4382111,"60fead405d4fefc6731afbcc","Chrome 92.0.4515.107","retrieval_b6",3,"SS7",15,2657.39999997616,"squirrelB.png",1,0,0,"recon_trial","SS7",6,2,"rand","pet store.png",5,4,"beetleB.png",NA,NA,NA
"30/07/2021 14:30:37","30/07/2021 10:30:37",56975,3,4382111,"60fead405d4fefc6731afbcc","Chrome 92.0.4515.107","retrieval_b6",3,"SS7",16,822.5,"pigB.png",1,1,0,"recon_trial","SS7",6,2,"rand","pet store.png",6,1,"pigB.png",NA,NA,NA
"30/07/2021 14:33:30","30/07/2021 10:33:30",56975,3,4382111,"60fead405d4fefc6731afbcc","Chrome 92.0.4515.107","retrieval_b7",3,"SS7",4,4390.5,"beetB.png",1,1,0,"recon_trial","SS7",7,4,"pred","grocery store.png",1,3,"beetB.png",NA,NA,NA
"30/07/2021 14:33:33","30/07/2021 10:33:33",56975,3,4382111,"60fead405d4fefc6731afbcc","Chrome 92.0.4515.107","retrieval_b7",3,"SS7",5,2797.60000002384,"hummusB.png",1,1,0,"recon_trial","SS7",7,4,"pred","grocery store.png",2,2,"hummusB.png",NA,NA,NA
"30/07/2021 14:33:39","30/07/2021 10:33:39",56975,3,4382111,"60fead405d4fefc6731afbcc","Chrome 92.0.4515.107","retrieval_b7",3,"SS7",6,6201.89999997616,"icecreamsandwichB.png",1,0,0,"recon_trial","SS7",7,4,"pred","grocery store.png",3,4,"soupB.png",NA,NA,NA
"30/07/2021 14:33:40","30/07/2021 10:33:40",56975,3,4382111,"60fead405d4fefc6731afbcc","Chrome 92.0.4515.107","retrieval_b7",3,"SS7",7,971.5,"soupB.png",1,0,0,"recon_trial","SS7",7,4,"pred","grocery store.png",4,2,"icecreamsandwichB.png",NA,NA,NA
"30/07/2021 14:33:41","30/07/2021 10:33:40",56975,3,4382111,"60fead405d4fefc6731afbcc","Chrome 92.0.4515.107","retrieval_b7",3,"SS7",8,474.100000023842,"honeycombB.png",1,1,0,"recon_trial","SS7",7,4,"pred","grocery store.png",5,1,"honeycombB.png",NA,NA,NA
"30/07/2021 14:33:41","30/07/2021 10:33:41",56975,3,4382111,"60fead405d4fefc6731afbcc","Chrome 92.0.4515.107","retrieval_b7",3,"SS7",9,705.399999976158,"smoresB.png",1,1,0,"recon_trial","SS7",7,4,"pred","grocery store.png",6,4,"smoresB.png",NA,NA,NA
"30/07/2021 14:33:47","30/07/2021 10:33:47",56975,3,4382111,"60fead405d4fefc6731afbcc","Chrome 92.0.4515.107","retrieval_b7",3,"SS7",11,4874,"snakeB.png",1,1,0,"recon_trial","SS7",7,2,"rand","pet store.png",1,2,"snakeB.png",NA,NA,NA
"30/07/2021 14:33:50","30/07/2021 10:33:50",56975,3,4382111,"60fead405d4fefc6731afbcc","Chrome 92.0.4515.107","retrieval_b7",3,"SS7",12,3026.90000003576,"emuB.png",1,1,0,"recon_trial","SS7",7,2,"rand","pet store.png",2,4,"emuB.png",NA,NA,NA
"30/07/2021 14:33:52","30/07/2021 10:33:52",56975,3,4382111,"60fead405d4fefc6731afbcc","Chrome 92.0.4515.107","retrieval_b7",3,"SS7",13,1362.5,"parrotB.png",1,1,0,"recon_trial","SS7",7,2,"rand","pet store.png",3,1,"parrotB.png",NA,NA,NA
"30/07/2021 14:33:53","30/07/2021 10:33:53",56975,3,4382111,"60fead405d4fefc6731afbcc","Chrome 92.0.4515.107","retrieval_b7",3,"SS7",14,1740,"camelB.png",1,1,0,"recon_trial","SS7",7,2,"rand","pet store.png",4,3,"camelB.png",NA,NA,NA
"30/07/2021 14:33:55","30/07/2021 10:33:55",56975,3,4382111,"60fead405d4fefc6731afbcc","Chrome 92.0.4515.107","retrieval_b7",3,"SS7",15,1511.30000001192,"pangolinB.png",1,1,0,"recon_trial","SS7",7,2,"rand","pet store.png",5,4,"pangolinB.png",NA,NA,NA
"30/07/2021 14:33:56","30/07/2021 10:33:56",56975,3,4382111,"60fead405d4fefc6731afbcc","Chrome 92.0.4515.107","retrieval_b7",3,"SS7",16,774.899999976158,"crabB.png",1,1,0,"recon_trial","SS7",7,2,"rand","pet store.png",6,3,"crabB.png",NA,NA,NA
"30/07/2021 14:36:41","30/07/2021 10:36:41",56975,3,4382111,"60fead405d4fefc6731afbcc","Chrome 92.0.4515.107","retrieval_b8",3,"SS7",4,5510.69999998808,"hotdogB.png",1,1,0,"recon_trial","SS7",8,1,"pred","grocery store.png",1,3,"hotdogB.png",NA,NA,NA
"30/07/2021 14:36:49","30/07/2021 10:36:48",56975,3,4382111,"60fead405d4fefc6731afbcc","Chrome 92.0.4515.107","retrieval_b8",3,"SS7",5,7440.19999998808,"basilB.png",1,1,0,"recon_trial","SS7",8,1,"pred","grocery store.png",2,2,"basilB.png",NA,NA,NA
"30/07/2021 14:36:50","30/07/2021 10:36:50",56975,3,4382111,"60fead405d4fefc6731afbcc","Chrome 92.0.4515.107","retrieval_b8",3,"SS7",6,1692.19999998808,"breadB.png",1,1,0,"recon_trial","SS7",8,1,"pred","grocery store.png",3,4,"breadB.png",NA,NA,NA
"30/07/2021 14:36:51","30/07/2021 10:36:51",56975,3,4382111,"60fead405d4fefc6731afbcc","Chrome 92.0.4515.107","retrieval_b8",3,"SS7",7,835.5,"walnutsB.png",1,1,0,"recon_trial","SS7",8,1,"pred","grocery store.png",4,2,"walnutsB.png",NA,NA,NA
"30/07/2021 14:36:52","30/07/2021 10:36:52",56975,3,4382111,"60fead405d4fefc6731afbcc","Chrome 92.0.4515.107","retrieval_b8",3,"SS7",8,937.800000011921,"acaibowlB.png",1,1,0,"recon_trial","SS7",8,1,"pred","grocery store.png",5,1,"acaibowlB.png",NA,NA,NA
"30/07/2021 14:36:53","30/07/2021 10:36:53",56975,3,4382111,"60fead405d4fefc6731afbcc","Chrome 92.0.4515.107","retrieval_b8",3,"SS7",9,705.600000023842,"poutineB.png",1,1,0,"recon_trial","SS7",8,1,"pred","grocery store.png",6,4,"poutineB.png",NA,NA,NA
"30/07/2021 14:37:09","30/07/2021 10:37:09",56975,3,4382111,"60fead405d4fefc6731afbcc","Chrome 92.0.4515.107","retrieval_b8",3,"SS7",11,14999.4,NA,NA,0,0,"recon_trial","SS7",8,3,"rand","pet store.png",1,4,"butterflyB.png",NA,NA,NA
"30/07/2021 14:37:13","30/07/2021 10:37:12",56975,3,4382111,"60fead405d4fefc6731afbcc","Chrome 92.0.4515.107","retrieval_b8",3,"SS7",12,3675.90000003576,"owlB.png",1,0,0,"recon_trial","SS7",8,3,"rand","pet store.png",2,1,"cardinalB.png",NA,NA,NA
"30/07/2021 14:37:14","30/07/2021 10:37:13",56975,3,4382111,"60fead405d4fefc6731afbcc","Chrome 92.0.4515.107","retrieval_b8",3,"SS7",13,1044,"butterflyB.png",1,0,0,"recon_trial","SS7",8,3,"rand","pet store.png",3,3,"turtleB.png",NA,NA,NA
"30/07/2021 14:37:20","30/07/2021 10:37:20",56975,3,4382111,"60fead405d4fefc6731afbcc","Chrome 92.0.4515.107","retrieval_b8",3,"SS7",14,6387.20000004768,"cardinalB.png",1,0,0,"recon_trial","SS7",8,3,"rand","pet store.png",4,2,"hedgehogB.png",NA,NA,NA
"30/07/2021 14:37:23","30/07/2021 10:37:22",56975,3,4382111,"60fead405d4fefc6731afbcc","Chrome 92.0.4515.107","retrieval_b8",3,"SS7",15,2553.70000004768,"turtleB.png",1,0,0,"recon_trial","SS7",8,3,"rand","pet store.png",5,3,"owlB.png",NA,NA,NA
"30/07/2021 14:37:23","30/07/2021 10:37:23",56975,3,4382111,"60fead405d4fefc6731afbcc","Chrome 92.0.4515.107","retrieval_b8",3,"SS7",16,515.400000035763,"hedgehogB.png",1,0,0,"recon_trial","SS7",8,3,"rand","pet store.png",6,1,"pugB.png",NA,NA,NA
"30/07/2021 14:11:43","30/07/2021 10:11:15",56975,3,4382102,"61004f2008fa2db433058586","Safari 14.0.3","retrieval_b1",4,"SS3",11,2762,"bisonA.png",1,1,0,"recon_trial","SS3",1,4,"rand","pet store.png",1,2,"bisonA.png",NA,NA,NA
"30/07/2021 14:11:47","30/07/2021 10:11:19",56975,3,4382102,"61004f2008fa2db433058586","Safari 14.0.3","retrieval_b1",4,"SS3",12,3861,"elephantA.png",1,1,0,"recon_trial","SS3",1,4,"rand","pet store.png",2,3,"elephantA.png",NA,NA,NA
"30/07/2021 14:11:51","30/07/2021 10:11:22",56975,3,4382102,"61004f2008fa2db433058586","Safari 14.0.3","retrieval_b1",4,"SS3",13,3582,"catA.png",1,1,0,"recon_trial","SS3",1,4,"rand","pet store.png",3,1,"catA.png",NA,NA,NA
"30/07/2021 14:11:56","30/07/2021 10:11:27",56975,3,4382102,"61004f2008fa2db433058586","Safari 14.0.3","retrieval_b1",4,"SS3",14,4931,"foxA.png",1,0,0,"recon_trial","SS3",1,4,"rand","pet store.png",4,3,"kangarooA.png",NA,NA,NA
"30/07/2021 14:11:59","30/07/2021 10:11:31",56975,3,4382102,"61004f2008fa2db433058586","Safari 14.0.3","retrieval_b1",4,"SS3",15,3138,"kangarooA.png",1,0,0,"recon_trial","SS3",1,4,"rand","pet store.png",5,4,"foxA.png",NA,NA,NA
"30/07/2021 14:12:00","30/07/2021 10:11:32",56975,3,4382102,"61004f2008fa2db433058586","Safari 14.0.3","retrieval_b1",4,"SS3",16,1036,"rabbitA.png",1,1,0,"recon_trial","SS3",1,4,"rand","pet store.png",6,1,"rabbitA.png",NA,NA,NA
"30/07/2021 14:12:03","30/07/2021 10:11:35",56975,3,4382102,"61004f2008fa2db433058586","Safari 14.0.3","retrieval_b1",4,"SS3",4,2155.00000000001,"lycheeA.png",1,1,0,"recon_trial","SS3",1,3,"pred","grocery store.png",1,3,"lycheeA.png",NA,NA,NA
"30/07/2021 14:12:05","30/07/2021 10:11:37",56975,3,4382102,"61004f2008fa2db433058586","Safari 14.0.3","retrieval_b1",4,"SS3",5,2275.00000000001,"nachosA.png",1,1,0,"recon_trial","SS3",1,3,"pred","grocery store.png",2,2,"nachosA.png",NA,NA,NA
"30/07/2021 14:12:13","30/07/2021 10:11:45",56975,3,4382102,"61004f2008fa2db433058586","Safari 14.0.3","retrieval_b1",4,"SS3",6,8026,"burgerA.png",1,1,0,"recon_trial","SS3",1,3,"pred","grocery store.png",3,4,"burgerA.png",NA,NA,NA
"30/07/2021 14:12:16","30/07/2021 10:11:48",56975,3,4382102,"61004f2008fa2db433058586","Safari 14.0.3","retrieval_b1",4,"SS3",7,2468,"donutA.png",1,1,0,"recon_trial","SS3",1,3,"pred","grocery store.png",4,2,"donutA.png",NA,NA,NA
"30/07/2021 14:12:16","30/07/2021 10:11:48",56975,3,4382102,"61004f2008fa2db433058586","Safari 14.0.3","retrieval_b1",4,"SS3",8,744,"appleA.png",1,1,0,"recon_trial","SS3",1,3,"pred","grocery store.png",5,1,"appleA.png",NA,NA,NA
"30/07/2021 14:12:17","30/07/2021 10:11:49",56975,3,4382102,"61004f2008fa2db433058586","Safari 14.0.3","retrieval_b1",4,"SS3",9,595,"pineappleA.png",1,1,0,"recon_trial","SS3",1,3,"pred","grocery store.png",6,4,"pineappleA.png",NA,NA,NA
"30/07/2021 14:15:13","30/07/2021 10:14:45",56975,3,4382102,"61004f2008fa2db433058586","Safari 14.0.3","retrieval_b2",3,"SS3",4,2269,"milkA.png",1,1,0,"recon_trial","SS3",2,2,"pred","grocery store.png",1,3,"milkA.png",NA,NA,NA
"30/07/2021 14:15:15","30/07/2021 10:14:47",56975,3,4382102,"61004f2008fa2db433058586","Safari 14.0.3","retrieval_b2",3,"SS3",5,2216,"coffeeA.png",1,1,0,"recon_trial","SS3",2,2,"pred","grocery store.png",2,2,"coffeeA.png",NA,NA,NA
"30/07/2021 14:15:17","30/07/2021 10:14:49",56975,3,4382102,"61004f2008fa2db433058586","Safari 14.0.3","retrieval_b2",3,"SS3",6,1703,"pieA.png",1,1,0,"recon_trial","SS3",2,2,"pred","grocery store.png",3,4,"pieA.png",NA,NA,NA
"30/07/2021 14:15:18","30/07/2021 10:14:50",56975,3,4382102,"61004f2008fa2db433058586","Safari 14.0.3","retrieval_b2",3,"SS3",7,1390,"pancakesA.png",1,1,0,"recon_trial","SS3",2,2,"pred","grocery store.png",4,2,"pancakesA.png",NA,NA,NA
"30/07/2021 14:15:19","30/07/2021 10:14:51",56975,3,4382102,"61004f2008fa2db433058586","Safari 14.0.3","retrieval_b2",3,"SS3",8,903,"ravioliA.png",1,1,0,"recon_trial","SS3",2,2,"pred","grocery store.png",5,1,"ravioliA.png",NA,NA,NA
"30/07/2021 14:15:20","30/07/2021 10:14:52",56975,3,4382102,"61004f2008fa2db433058586","Safari 14.0.3","retrieval_b2",3,"SS3",9,708,"garlicA.png",1,1,0,"recon_trial","SS3",2,2,"pred","grocery store.png",6,4,"garlicA.png",NA,NA,NA
"30/07/2021 14:15:24","30/07/2021 10:14:56",56975,3,4382102,"61004f2008fa2db433058586","Safari 14.0.3","retrieval_b2",3,"SS3",11,2887,"bettafishA.png",1,1,0,"recon_trial","SS3",2,1,"rand","pet store.png",1,2,"bettafishA.png",NA,NA,NA
"30/07/2021 14:15:25","30/07/2021 10:14:57",56975,3,4382102,"61004f2008fa2db433058586","Safari 14.0.3","retrieval_b2",3,"SS3",12,998,"penguinA.png",1,1,0,"recon_trial","SS3",2,1,"rand","pet store.png",2,1,"penguinA.png",NA,NA,NA
"30/07/2021 14:15:26","30/07/2021 10:14:58",56975,3,4382102,"61004f2008fa2db433058586","Safari 14.0.3","retrieval_b2",3,"SS3",13,1331,"butterflyA.png",1,1,0,"recon_trial","SS3",2,1,"rand","pet store.png",3,4,"butterflyA.png",NA,NA,NA
"30/07/2021 14:15:28","30/07/2021 10:15:00",56975,3,4382102,"61004f2008fa2db433058586","Safari 14.0.3","retrieval_b2",3,"SS3",14,1795,"flamingoA.png",1,1,0,"recon_trial","SS3",2,1,"rand","pet store.png",4,3,"flamingoA.png",NA,NA,NA
"30/07/2021 14:15:29","30/07/2021 10:15:00",56975,3,4382102,"61004f2008fa2db433058586","Safari 14.0.3","retrieval_b2",3,"SS3",15,725,"cheetahA.png",1,0,0,"recon_trial","SS3",2,1,"rand","pet store.png",5,1,"gorillaA.png",NA,NA,NA
"30/07/2021 14:15:31","30/07/2021 10:15:02",56975,3,4382102,"61004f2008fa2db433058586","Safari 14.0.3","retrieval_b2",3,"SS3",16,1913,"gorillaA.png",1,0,0,"recon_trial","SS3",2,1,"rand","pet store.png",6,3,"cheetahA.png",NA,NA,NA
"30/07/2021 14:18:13","30/07/2021 10:17:45",56975,3,4382102,"61004f2008fa2db433058586","Safari 14.0.3","retrieval_b3",3,"SS3",11,2770,"goatA.png",1,1,0,"recon_trial","SS3",3,3,"rand","pet store.png",1,2,"goatA.png",NA,NA,NA
"30/07/2021 14:18:15","30/07/2021 10:17:47",56975,3,4382102,"61004f2008fa2db433058586","Safari 14.0.3","retrieval_b3",3,"SS3",12,1621,"snailA.png",1,1,0,"recon_trial","SS3",3,3,"rand","pet store.png",2,3,"snailA.png",NA,NA,NA
"30/07/2021 14:18:17","30/07/2021 10:17:49",56975,3,4382102,"61004f2008fa2db433058586","Safari 14.0.3","retrieval_b3",3,"SS3",13,2105,"redpandaA.png",1,1,0,"recon_trial","SS3",3,3,"rand","pet store.png",3,1,"redpandaA.png",NA,NA,NA
"30/07/2021 14:18:21","30/07/2021 10:17:53",56975,3,4382102,"61004f2008fa2db433058586","Safari 14.0.3","retrieval_b3",3,"SS3",14,4297,"toucanA.png",1,0,0,"recon_trial","SS3",3,3,"rand","pet store.png",4,4,"mooseA.png",NA,NA,NA
"30/07/2021 14:18:22","30/07/2021 10:17:54",56975,3,4382102,"61004f2008fa2db433058586","Safari 14.0.3","retrieval_b3",3,"SS3",15,1028,"mooseA.png",1,0,0,"recon_trial","SS3",3,3,"rand","pet store.png",5,1,"toucanA.png",NA,NA,NA
"30/07/2021 14:18:23","30/07/2021 10:17:55",56975,3,4382102,"61004f2008fa2db433058586","Safari 14.0.3","retrieval_b3",3,"SS3",16,869,"canadiangooseA.png",1,1,0,"recon_trial","SS3",3,3,"rand","pet store.png",6,3,"canadiangooseA.png",NA,NA,NA
"30/07/2021 14:18:28","30/07/2021 10:17:59",56975,3,4382102,"61004f2008fa2db433058586","Safari 14.0.3","retrieval_b3",3,"SS3",4,3258,"muffinA.png",1,1,0,"recon_trial","SS3",3,1,"pred","grocery store.png",1,3,"muffinA.png",NA,NA,NA
"30/07/2021 14:18:29","30/07/2021 10:18:01",56975,3,4382102,"61004f2008fa2db433058586","Safari 14.0.3","retrieval_b3",3,"SS3",5,1126,"cookedchickenA.png",1,1,0,"recon_trial","SS3",3,1,"pred","grocery store.png",2,2,"cookedchickenA.png",NA,NA,NA
"30/07/2021 14:18:30","30/07/2021 10:18:02",56975,3,4382102,"61004f2008fa2db433058586","Safari 14.0.3","retrieval_b3",3,"SS3",6,1243,"waffleA.png",1,1,0,"recon_trial","SS3",3,1,"pred","grocery store.png",3,4,"waffleA.png",NA,NA,NA
"30/07/2021 14:18:31","30/07/2021 10:18:03",56975,3,4382102,"61004f2008fa2db433058586","Safari 14.0.3","retrieval_b3",3,"SS3",7,772,"walnutsA.png",1,1,0,"recon_trial","SS3",3,1,"pred","grocery store.png",4,2,"walnutsA.png",NA,NA,NA
"30/07/2021 14:18:31","30/07/2021 10:18:03",56975,3,4382102,"61004f2008fa2db433058586","Safari 14.0.3","retrieval_b3",3,"SS3",8,732.000000000004,"hotdogA.png",1,1,0,"recon_trial","SS3",3,1,"pred","grocery store.png",5,1,"hotdogA.png",NA,NA,NA
"30/07/2021 14:18:32","30/07/2021 10:18:04",56975,3,4382102,"61004f2008fa2db433058586","Safari 14.0.3","retrieval_b3",3,"SS3",9,664,"beetA.png",1,1,0,"recon_trial","SS3",3,1,"pred","grocery store.png",6,4,"beetA.png",NA,NA,NA
"30/07/2021 14:21:23","30/07/2021 10:20:55",56975,3,4382102,"61004f2008fa2db433058586","Safari 14.0.3","retrieval_b4",3,"SS3",4,4496,"peanutbutterA.png",1,1,0,"recon_trial","SS3",4,1,"pred","grocery store.png",1,3,"peanutbutterA.png",NA,NA,NA
"30/07/2021 14:21:26","30/07/2021 10:20:57",56975,3,4382102,"61004f2008fa2db433058586","Safari 14.0.3","retrieval_b4",3,"SS3",5,1918,"sandwichA.png",1,1,0,"recon_trial","SS3",4,1,"pred","grocery store.png",2,2,"sandwichA.png",NA,NA,NA
"30/07/2021 14:21:27","30/07/2021 10:20:59",56975,3,4382102,"61004f2008fa2db433058586","Safari 14.0.3","retrieval_b4",3,"SS3",6,1453,"mushroomsA.png",1,1,0,"recon_trial","SS3",4,1,"pred","grocery store.png",3,4,"mushroomsA.png",NA,NA,NA
"30/07/2021 14:21:28","30/07/2021 10:21:00",56975,3,4382102,"61004f2008fa2db433058586","Safari 14.0.3","retrieval_b4",3,"SS3",7,1290,"breadA.png",1,1,0,"recon_trial","SS3",4,1,"pred","grocery store.png",4,2,"breadA.png",NA,NA,NA
"30/07/2021 14:21:29","30/07/2021 10:21:01",56975,3,4382102,"61004f2008fa2db433058586","Safari 14.0.3","retrieval_b4",3,"SS3",8,1001,"pomegranateA.png",1,1,0,"recon_trial","SS3",4,1,"pred","grocery store.png",5,1,"pomegranateA.png",NA,NA,NA
"30/07/2021 14:21:30","30/07/2021 10:21:02",56975,3,4382102,"61004f2008fa2db433058586","Safari 14.0.3","retrieval_b4",3,"SS3",9,940,"strawberriesA.png",1,1,0,"recon_trial","SS3",4,1,"pred","grocery store.png",6,4,"strawberriesA.png",NA,NA,NA
"30/07/2021 14:21:35","30/07/2021 10:21:06",56975,3,4382102,"61004f2008fa2db433058586","Safari 14.0.3","retrieval_b4",3,"SS3",11,3447,"bloodhoundA.png",1,1,0,"recon_trial","SS3",4,2,"rand","pet store.png",1,4,"bloodhoundA.png",NA,NA,NA
"30/07/2021 14:21:36","30/07/2021 10:21:08",56975,3,4382102,"61004f2008fa2db433058586","Safari 14.0.3","retrieval_b4",3,"SS3",12,1867,"octopusA.png",1,1,0,"recon_trial","SS3",4,2,"rand","pet store.png",2,2,"octopusA.png",NA,NA,NA
"30/07/2021 14:21:38","30/07/2021 10:21:10",56975,3,4382102,"61004f2008fa2db433058586","Safari 14.0.3","retrieval_b4",3,"SS3",13,1689,"stingrayA.png",1,1,0,"recon_trial","SS3",4,2,"rand","pet store.png",3,3,"stingrayA.png",NA,NA,NA
"30/07/2021 14:21:41","30/07/2021 10:21:13",56975,3,4382102,"61004f2008fa2db433058586","Safari 14.0.3","retrieval_b4",3,"SS3",14,2876,"zebraA.png",1,1,0,"recon_trial","SS3",4,2,"rand","pet store.png",4,1,"zebraA.png",NA,NA,NA
"30/07/2021 14:21:42","30/07/2021 10:21:14",56975,3,4382102,"61004f2008fa2db433058586","Safari 14.0.3","retrieval_b4",3,"SS3",15,1239,"hammerheadsharkA.png",1,1,0,"recon_trial","SS3",4,2,"rand","pet store.png",5,3,"hammerheadsharkA.png",NA,NA,NA
"30/07/2021 14:21:43","30/07/2021 10:21:15",56975,3,4382102,"61004f2008fa2db433058586","Safari 14.0.3","retrieval_b4",3,"SS3",16,1142,"bearA.png",1,1,0,"recon_trial","SS3",4,2,"rand","pet store.png",6,2,"bearA.png",NA,NA,NA
"30/07/2021 14:26:36","30/07/2021 10:26:08",56975,3,4382102,"61004f2008fa2db433058586","Safari 14.0.3","retrieval_b5",3,"SS3",11,3052,"horseA.png",1,1,0,"recon_trial","SS3",5,1,"rand","pet store.png",1,2,"horseA.png",NA,NA,NA
"30/07/2021 14:26:38","30/07/2021 10:26:10",56975,3,4382102,"61004f2008fa2db433058586","Safari 14.0.3","retrieval_b5",3,"SS3",12,2036,"hedgehogA.png",1,1,0,"recon_trial","SS3",5,1,"rand","pet store.png",2,3,"hedgehogA.png",NA,NA,NA
"30/07/2021 14:26:39","30/07/2021 10:26:11",56975,3,4382102,"61004f2008fa2db433058586","Safari 14.0.3","retrieval_b5",3,"SS3",13,1093,"tortoiseA.png",1,1,0,"recon_trial","SS3",5,1,"rand","pet store.png",3,1,"tortoiseA.png",NA,NA,NA
"30/07/2021 14:26:40","30/07/2021 10:26:12",56975,3,4382102,"61004f2008fa2db433058586","Safari 14.0.3","retrieval_b5",3,"SS3",14,1282,"pangolinA.png",1,1,0,"recon_trial","SS3",5,1,"rand","pet store.png",4,4,"pangolinA.png",NA,NA,NA
"30/07/2021 14:26:45","30/07/2021 10:26:17",56975,3,4382102,"61004f2008fa2db433058586","Safari 14.0.3","retrieval_b5",3,"SS3",15,4471,"turkeyA.png",1,1,0,"recon_trial","SS3",5,1,"rand","pet store.png",5,3,"turkeyA.png",NA,NA,NA
"30/07/2021 14:26:46","30/07/2021 10:26:18",56975,3,4382102,"61004f2008fa2db433058586","Safari 14.0.3","retrieval_b5",3,"SS3",16,967.000000000004,"lemurA.png",1,1,0,"recon_trial","SS3",5,1,"rand","pet store.png",6,4,"lemurA.png",NA,NA,NA
"30/07/2021 14:26:49","30/07/2021 10:26:21",56975,3,4382102,"61004f2008fa2db433058586","Safari 14.0.3","retrieval_b5",3,"SS3",4,2046,"cabbageA.png",1,1,0,"recon_trial","SS3",5,3,"pred","grocery store.png",1,3,"cabbageA.png",NA,NA,NA
"30/07/2021 14:26:50","30/07/2021 10:26:21",56975,3,4382102,"61004f2008fa2db433058586","Safari 14.0.3","retrieval_b5",3,"SS3",5,796,"popcornA.png",1,1,0,"recon_trial","SS3",5,3,"pred","grocery store.png",2,2,"popcornA.png",NA,NA,NA
"30/07/2021 14:26:51","30/07/2021 10:26:23",56975,3,4382102,"61004f2008fa2db433058586","Safari 14.0.3","retrieval_b5",3,"SS3",6,1234,"carrotsA.png",1,1,0,"recon_trial","SS3",5,3,"pred","grocery store.png",3,4,"carrotsA.png",NA,NA,NA
"30/07/2021 14:26:52","30/07/2021 10:26:24",56975,3,4382102,"61004f2008fa2db433058586","Safari 14.0.3","retrieval_b5",3,"SS3",7,1041,"butterA.png",1,1,0,"recon_trial","SS3",5,3,"pred","grocery store.png",4,2,"butterA.png",NA,NA,NA
"30/07/2021 14:26:53","30/07/2021 10:26:25",56975,3,4382102,"61004f2008fa2db433058586","Safari 14.0.3","retrieval_b5",3,"SS3",8,824,"cheeseA.png",1,1,0,"recon_trial","SS3",5,3,"pred","grocery store.png",5,1,"cheeseA.png",NA,NA,NA
"30/07/2021 14:26:54","30/07/2021 10:26:25",56975,3,4382102,"61004f2008fa2db433058586","Safari 14.0.3","retrieval_b5",3,"SS3",9,826,"cornA.png",1,1,0,"recon_trial","SS3",5,3,"pred","grocery store.png",6,4,"cornA.png",NA,NA,NA
"30/07/2021 14:33:28","30/07/2021 10:33:00",56975,3,4382102,"61004f2008fa2db433058586","Safari 14.0.3","retrieval_b6",3,"SS3",11,3094,"ratA.png",1,1,0,"recon_trial","SS3",6,3,"rand","pet store.png",1,2,"ratA.png",NA,NA,NA
"30/07/2021 14:33:30","30/07/2021 10:33:02",56975,3,4382102,"61004f2008fa2db433058586","Safari 14.0.3","retrieval_b6",3,"SS3",12,2034,"beetleA.png",1,1,0,"recon_trial","SS3",6,3,"rand","pet store.png",2,1,"beetleA.png",NA,NA,NA
"30/07/2021 14:33:33","30/07/2021 10:33:04",56975,3,4382102,"61004f2008fa2db433058586","Safari 14.0.3","retrieval_b6",3,"SS3",13,2394,"boarA.png",1,1,0,"recon_trial","SS3",6,3,"rand","pet store.png",3,3,"boarA.png",NA,NA,NA
"30/07/2021 14:33:34","30/07/2021 10:33:06",56975,3,4382102,"61004f2008fa2db433058586","Safari 14.0.3","retrieval_b6",3,"SS3",14,1477,"hummingbirdA.png",1,1,0,"recon_trial","SS3",6,3,"rand","pet store.png",4,1,"hummingbirdA.png",NA,NA,NA
"30/07/2021 14:33:35","30/07/2021 10:33:07",56975,3,4382102,"61004f2008fa2db433058586","Safari 14.0.3","retrieval_b6",3,"SS3",15,822,"eagleA.png",1,1,0,"recon_trial","SS3",6,3,"rand","pet store.png",5,4,"eagleA.png",NA,NA,NA
"30/07/2021 14:33:36","30/07/2021 10:33:08",56975,3,4382102,"61004f2008fa2db433058586","Safari 14.0.3","retrieval_b6",3,"SS3",16,903.000000000002,"cowA.png",1,1,0,"recon_trial","SS3",6,3,"rand","pet store.png",6,3,"cowA.png",NA,NA,NA
"30/07/2021 14:33:39","30/07/2021 10:33:11",56975,3,4382102,"61004f2008fa2db433058586","Safari 14.0.3","retrieval_b6",3,"SS3",4,2322,"mustardA.png",1,1,0,"recon_trial","SS3",6,4,"pred","grocery store.png",1,3,"mustardA.png",NA,NA,NA
"30/07/2021 14:33:41","30/07/2021 10:33:12",56975,3,4382102,"61004f2008fa2db433058586","Safari 14.0.3","retrieval_b6",3,"SS3",5,1475,"soupA.png",1,1,0,"recon_trial","SS3",6,4,"pred","grocery store.png",2,2,"soupA.png",NA,NA,NA
"30/07/2021 14:33:41","30/07/2021 10:33:13",56975,3,4382102,"61004f2008fa2db433058586","Safari 14.0.3","retrieval_b6",3,"SS3",6,858.999999999996,"bellpeppersA.png",1,1,0,"recon_trial","SS3",6,4,"pred","grocery store.png",3,4,"bellpeppersA.png",NA,NA,NA
"30/07/2021 14:33:42","30/07/2021 10:33:14",56975,3,4382102,"61004f2008fa2db433058586","Safari 14.0.3","retrieval_b6",3,"SS3",7,735.999999999996,"asparagusA.png",1,1,0,"recon_trial","SS3",6,4,"pred","grocery store.png",4,2,"asparagusA.png",NA,NA,NA
"30/07/2021 14:33:43","30/07/2021 10:33:15",56975,3,4382102,"61004f2008fa2db433058586","Safari 14.0.3","retrieval_b6",3,"SS3",8,838.999999999996,"clamsA.png",1,1,0,"recon_trial","SS3",6,4,"pred","grocery store.png",5,1,"clamsA.png",NA,NA,NA
"30/07/2021 14:33:44","30/07/2021 10:33:16",56975,3,4382102,"61004f2008fa2db433058586","Safari 14.0.3","retrieval_b6",3,"SS3",9,775.000000000004,"acornsquashA.png",1,1,0,"recon_trial","SS3",6,4,"pred","grocery store.png",6,4,"acornsquashA.png",NA,NA,NA
"30/07/2021 14:36:26","30/07/2021 10:35:58",56975,3,4382102,"61004f2008fa2db433058586","Safari 14.0.3","retrieval_b7",3,"SS3",4,3613,"broccoliA.png",1,1,0,"recon_trial","SS3",7,2,"pred","grocery store.png",1,3,"broccoliA.png",NA,NA,NA
"30/07/2021 14:36:27","30/07/2021 10:35:59",56975,3,4382102,"61004f2008fa2db433058586","Safari 14.0.3","retrieval_b7",3,"SS3",5,1475,"dragonfruitA.png",1,1,0,"recon_trial","SS3",7,2,"pred","grocery store.png",2,2,"dragonfruitA.png",NA,NA,NA
"30/07/2021 14:36:29","30/07/2021 10:36:01",56975,3,4382102,"61004f2008fa2db433058586","Safari 14.0.3","retrieval_b7",3,"SS3",6,1809,"onionA.png",1,1,0,"recon_trial","SS3",7,2,"pred","grocery store.png",3,4,"onionA.png",NA,NA,NA
"30/07/2021 14:36:30","30/07/2021 10:36:02",56975,3,4382102,"61004f2008fa2db433058586","Safari 14.0.3","retrieval_b7",3,"SS3",7,918,"burritoA.png",1,1,0,"recon_trial","SS3",7,2,"pred","grocery store.png",4,2,"burritoA.png",NA,NA,NA
"30/07/2021 14:36:31","30/07/2021 10:36:03",56975,3,4382102,"61004f2008fa2db433058586","Safari 14.0.3","retrieval_b7",3,"SS3",8,936.000000000002,"porkA.png",1,1,0,"recon_trial","SS3",7,2,"pred","grocery store.png",5,1,"porkA.png",NA,NA,NA
"30/07/2021 14:36:32","30/07/2021 10:36:04",56975,3,4382102,"61004f2008fa2db433058586","Safari 14.0.3","retrieval_b7",3,"SS3",9,697.999999999998,"brusselsproutsA.png",1,1,0,"recon_trial","SS3",7,2,"pred","grocery store.png",6,4,"brusselsproutsA.png",NA,NA,NA
"30/07/2021 14:36:35","30/07/2021 10:36:07",56975,3,4382102,"61004f2008fa2db433058586","Safari 14.0.3","retrieval_b7",3,"SS3",11,2458,"walrusA.png",1,1,0,"recon_trial","SS3",7,4,"rand","pet store.png",1,4,"walrusA.png",NA,NA,NA
"30/07/2021 14:36:38","30/07/2021 10:36:09",56975,3,4382102,"61004f2008fa2db433058586","Safari 14.0.3","retrieval_b7",3,"SS3",12,2322,"deerA.png",1,1,0,"recon_trial","SS3",7,4,"rand","pet store.png",2,3,"deerA.png",NA,NA,NA
"30/07/2021 14:36:39","30/07/2021 10:36:11",56975,3,4382102,"61004f2008fa2db433058586","Safari 14.0.3","retrieval_b7",3,"SS3",13,1698,"snakeA.png",1,1,0,"recon_trial","SS3",7,4,"rand","pet store.png",3,1,"snakeA.png",NA,NA,NA
"30/07/2021 14:36:41","30/07/2021 10:36:12",56975,3,4382102,"61004f2008fa2db433058586","Safari 14.0.3","retrieval_b7",3,"SS3",14,1308,"pufferfishA.png",1,1,0,"recon_trial","SS3",7,4,"rand","pet store.png",4,2,"pufferfishA.png",NA,NA,NA
"30/07/2021 14:36:41","30/07/2021 10:36:13",56975,3,4382102,"61004f2008fa2db433058586","Safari 14.0.3","retrieval_b7",3,"SS3",15,838,"armadilloA.png",1,1,0,"recon_trial","SS3",7,4,"rand","pet store.png",5,1,"armadilloA.png",NA,NA,NA
"30/07/2021 14:36:42","30/07/2021 10:36:14",56975,3,4382102,"61004f2008fa2db433058586","Safari 14.0.3","retrieval_b7",3,"SS3",16,859.999999999996,"crocodileA.png",1,1,0,"recon_trial","SS3",7,4,"rand","pet store.png",6,3,"crocodileA.png",NA,NA,NA
"30/07/2021 14:39:43","30/07/2021 10:39:15",56975,3,4382102,"61004f2008fa2db433058586","Safari 14.0.3","retrieval_b8",3,"SS3",11,2143,"toadA.png",1,1,0,"recon_trial","SS3",8,2,"rand","pet store.png",1,4,"toadA.png",NA,NA,NA
"30/07/2021 14:39:45","30/07/2021 10:39:16",56975,3,4382102,"61004f2008fa2db433058586","Safari 14.0.3","retrieval_b8",3,"SS3",12,1459,"goldenretrieverA.png",1,1,0,"recon_trial","SS3",8,2,"rand","pet store.png",2,1,"goldenretrieverA.png",NA,NA,NA
"30/07/2021 14:39:46","30/07/2021 10:39:18",56975,3,4382102,"61004f2008fa2db433058586","Safari 14.0.3","retrieval_b8",3,"SS3",13,1500,"dolphinA.png",1,1,0,"recon_trial","SS3",8,2,"rand","pet store.png",3,3,"dolphinA.png",NA,NA,NA
"30/07/2021 14:39:51","30/07/2021 10:39:23",56975,3,4382102,"61004f2008fa2db433058586","Safari 14.0.3","retrieval_b8",3,"SS3",14,4621,"caterpillarA.png",1,0,0,"recon_trial","SS3",8,2,"rand","pet store.png",4,2,"sharkA.png",NA,NA,NA
"30/07/2021 14:39:52","30/07/2021 10:39:24",56975,3,4382102,"61004f2008fa2db433058586","Safari 14.0.3","retrieval_b8",3,"SS3",15,1449,"sharkA.png",1,0,0,"recon_trial","SS3",8,2,"rand","pet store.png",5,3,"caterpillarA.png",NA,NA,NA
"30/07/2021 14:39:53","30/07/2021 10:39:25",56975,3,4382102,"61004f2008fa2db433058586","Safari 14.0.3","retrieval_b8",3,"SS3",16,690,"dragonflyA.png",1,1,0,"recon_trial","SS3",8,2,"rand","pet store.png",6,1,"dragonflyA.png",NA,NA,NA
"30/07/2021 14:39:56","30/07/2021 10:39:28",56975,3,4382102,"61004f2008fa2db433058586","Safari 14.0.3","retrieval_b8",3,"SS3",4,1886,"coconutA.png",1,1,0,"recon_trial","SS3",8,4,"pred","grocery store.png",1,3,"coconutA.png",NA,NA,NA
"30/07/2021 14:39:57","30/07/2021 10:39:29",56975,3,4382102,"61004f2008fa2db433058586","Safari 14.0.3","retrieval_b8",3,"SS3",5,1163,"artichokeA.png",1,1,0,"recon_trial","SS3",8,4,"pred","grocery store.png",2,2,"artichokeA.png",NA,NA,NA
"30/07/2021 14:39:59","30/07/2021 10:39:30",56975,3,4382102,"61004f2008fa2db433058586","Safari 14.0.3","retrieval_b8",3,"SS3",6,1040,"oliveoilA.png",1,1,0,"recon_trial","SS3",8,4,"pred","grocery store.png",3,4,"oliveoilA.png",NA,NA,NA
"30/07/2021 14:39:59","30/07/2021 10:39:31",56975,3,4382102,"61004f2008fa2db433058586","Safari 14.0.3","retrieval_b8",3,"SS3",7,744.999999999996,"chocolateA.png",1,1,0,"recon_trial","SS3",8,4,"pred","grocery store.png",4,2,"chocolateA.png",NA,NA,NA
"30/07/2021 14:39:59","30/07/2021 10:39:31",56975,3,4382102,"61004f2008fa2db433058586","Safari 14.0.3","retrieval_b8",3,"SS3",8,587.000000000004,"dumplingsA.png",1,1,0,"recon_trial","SS3",8,4,"pred","grocery store.png",5,1,"dumplingsA.png",NA,NA,NA
"30/07/2021 14:40:00","30/07/2021 10:39:32",56975,3,4382102,"61004f2008fa2db433058586","Safari 14.0.3","retrieval_b8",3,"SS3",9,817,"fortunecookieA.png",1,1,0,"recon_trial","SS3",8,4,"pred","grocery store.png",6,4,"fortunecookieA.png",NA,NA,NA
"30/07/2021 14:09:24","30/07/2021 08:09:24",56975,3,4382116,"60fe055ba3265b507a386180","Chrome 92.0.4515.107","retrieval_b1",4,"SS5",11,3031.39999997616,"iguanaB.png",1,1,0,"recon_trial","SS5",1,3,"rand","pet store.png",1,4,"iguanaB.png",NA,NA,NA
"30/07/2021 14:09:26","30/07/2021 08:09:26",56975,3,4382116,"60fe055ba3265b507a386180","Chrome 92.0.4515.107","retrieval_b1",4,"SS5",12,1828.60000002384,"ferretB.png",1,1,0,"recon_trial","SS5",1,3,"rand","pet store.png",2,3,"ferretB.png",NA,NA,NA
"30/07/2021 14:09:28","30/07/2021 08:09:28",56975,3,4382116,"60fe055ba3265b507a386180","Chrome 92.0.4515.107","retrieval_b1",4,"SS5",13,2275.90000009537,"ratB.png",1,1,0,"recon_trial","SS5",1,3,"rand","pet store.png",3,1,"ratB.png",NA,NA,NA
"30/07/2021 14:09:30","30/07/2021 08:09:30",56975,3,4382116,"60fe055ba3265b507a386180","Chrome 92.0.4515.107","retrieval_b1",4,"SS5",14,1261.80000007153,"sharkB.png",1,1,0,"recon_trial","SS5",1,3,"rand","pet store.png",4,2,"sharkB.png",NA,NA,NA
"30/07/2021 14:09:32","30/07/2021 08:09:32",56975,3,4382116,"60fe055ba3265b507a386180","Chrome 92.0.4515.107","retrieval_b1",4,"SS5",15,2629.70000004768,"seahorseB.png",1,1,0,"recon_trial","SS5",1,3,"rand","pet store.png",5,1,"seahorseB.png",NA,NA,NA
"30/07/2021 14:09:33","30/07/2021 08:09:33",56975,3,4382116,"60fe055ba3265b507a386180","Chrome 92.0.4515.107","retrieval_b1",4,"SS5",16,1071.70000004768,"gorillaB.png",1,1,0,"recon_trial","SS5",1,3,"rand","pet store.png",6,3,"gorillaB.png",NA,NA,NA
"30/07/2021 14:09:36","30/07/2021 08:09:36",56975,3,4382116,"60fe055ba3265b507a386180","Chrome 92.0.4515.107","retrieval_b1",4,"SS5",4,1908.70000004768,"cakeB.png",1,1,0,"recon_trial","SS5",1,1,"pred","grocery store.png",1,1,"cakeB.png",NA,NA,NA
"30/07/2021 14:09:40","30/07/2021 08:09:40",56975,3,4382116,"60fe055ba3265b507a386180","Chrome 92.0.4515.107","retrieval_b1",4,"SS5",5,3422.39999997616,"appleB.png",1,1,0,"recon_trial","SS5",1,1,"pred","grocery store.png",2,4,"appleB.png",NA,NA,NA
"30/07/2021 14:09:42","30/07/2021 08:09:42",56975,3,4382116,"60fe055ba3265b507a386180","Chrome 92.0.4515.107","retrieval_b1",4,"SS5",6,2021.69999992847,"popcornshrimpB.png",1,1,0,"recon_trial","SS5",1,1,"pred","grocery store.png",3,3,"popcornshrimpB.png",NA,NA,NA
"30/07/2021 14:09:45","30/07/2021 08:09:45",56975,3,4382116,"60fe055ba3265b507a386180","Chrome 92.0.4515.107","retrieval_b1",4,"SS5",7,3250.10000002384,"acaibowlB.png",1,0,0,"recon_trial","SS5",1,1,"pred","grocery store.png",4,4,"coffeeB.png",NA,NA,NA
"30/07/2021 14:09:46","30/07/2021 08:09:46",56975,3,4382116,"60fe055ba3265b507a386180","Chrome 92.0.4515.107","retrieval_b1",4,"SS5",8,1305.5,"coffeeB.png",1,0,0,"recon_trial","SS5",1,1,"pred","grocery store.png",5,2,"acaibowlB.png",NA,NA,NA
"30/07/2021 14:09:47","30/07/2021 08:09:47",56975,3,4382116,"60fe055ba3265b507a386180","Chrome 92.0.4515.107","retrieval_b1",4,"SS5",9,1069.5,"coconutB.png",1,1,0,"recon_trial","SS5",1,1,"pred","grocery store.png",6,3,"coconutB.png",NA,NA,NA
"30/07/2021 14:15:04","30/07/2021 08:14:57",56975,3,4382116,"60fe055ba3265b507a386180","Chrome 92.0.4515.107","retrieval_b2",3,"SS5",4,2677.10000002384,"muffinB.png",1,1,0,"recon_trial","SS5",2,1,"pred","grocery store.png",1,1,"muffinB.png",NA,NA,NA
"30/07/2021 14:15:08","30/07/2021 08:15:07",56975,3,4382116,"60fe055ba3265b507a386180","Chrome 92.0.4515.107","retrieval_b2",3,"SS5",5,7999.10000002384,"cinnamonB.png",1,1,0,"recon_trial","SS5",2,1,"pred","grocery store.png",2,4,"cinnamonB.png",NA,NA,NA
"30/07/2021 14:15:11","30/07/2021 08:15:09",56975,3,4382116,"60fe055ba3265b507a386180","Chrome 92.0.4515.107","retrieval_b2",3,"SS5",6,1756.10000002384,"cerealB.png",1,1,0,"recon_trial","SS5",2,1,"pred","grocery store.png",3,3,"cerealB.png",NA,NA,NA
"30/07/2021 14:15:35","30/07/2021 08:15:31",56975,3,4382116,"60fe055ba3265b507a386180","Chrome 92.0.4515.107","retrieval_b2",3,"SS5",7,4798.5,"cupnoodleB.png",1,0,0,"recon_trial","SS5",2,1,"pred","grocery store.png",4,4,"pomegranateB.png",NA,NA,NA
"30/07/2021 14:15:40","30/07/2021 08:15:39",56975,3,4382116,"60fe055ba3265b507a386180","Chrome 92.0.4515.107","retrieval_b2",3,"SS5",8,2165.30000007153,"chocolateB.png",1,0,0,"recon_trial","SS5",2,1,"pred","grocery store.png",5,2,"cupnoodleB.png",NA,NA,NA
"30/07/2021 14:15:50","30/07/2021 08:15:46",56975,3,4382116,"60fe055ba3265b507a386180","Chrome 92.0.4515.107","retrieval_b2",3,"SS5",9,6982.30000007153,"chocolateB.png",1,1,0,"recon_trial","SS5",2,1,"pred","grocery store.png",6,3,"chocolateB.png",NA,NA,NA
"30/07/2021 14:15:52","30/07/2021 08:15:52",56975,3,4382116,"60fe055ba3265b507a386180","Chrome 92.0.4515.107","retrieval_b2",3,"SS5",11,4152.59999990463,"whaleB.png",1,1,0,"recon_trial","SS5",2,2,"rand","pet store.png",1,2,"whaleB.png",NA,NA,NA
"30/07/2021 14:15:54","30/07/2021 08:15:54",56975,3,4382116,"60fe055ba3265b507a386180","Chrome 92.0.4515.107","retrieval_b2",3,"SS5",12,2742.89999997616,"redpandaB.png",1,1,0,"recon_trial","SS5",2,2,"rand","pet store.png",2,4,"redpandaB.png",NA,NA,NA
"30/07/2021 14:15:57","30/07/2021 08:15:56",56975,3,4382116,"60fe055ba3265b507a386180","Chrome 92.0.4515.107","retrieval_b2",3,"SS5",13,2160.10000002384,"octopusB.png",1,1,0,"recon_trial","SS5",2,2,"rand","pet store.png",3,3,"octopusB.png",NA,NA,NA
"30/07/2021 14:16:05","30/07/2021 08:15:59",56975,3,4382116,"60fe055ba3265b507a386180","Chrome 92.0.4515.107","retrieval_b2",3,"SS5",14,2838.5,"redpandaB.png",1,0,0,"recon_trial","SS5",2,2,"rand","pet store.png",4,1,"armadilloB.png",NA,NA,NA
"30/07/2021 14:16:06","30/07/2021 08:16:03",56975,3,4382116,"60fe055ba3265b507a386180","Chrome 92.0.4515.107","retrieval_b2",3,"SS5",15,3636.80000007153,"catB.png",1,1,0,"recon_trial","SS5",2,2,"rand","pet store.png",5,3,"catB.png",NA,NA,NA
"30/07/2021 14:16:06","30/07/2021 08:16:05",56975,3,4382116,"60fe055ba3265b507a386180","Chrome 92.0.4515.107","retrieval_b2",3,"SS5",16,2010.09999990463,"vultureB.png",1,1,0,"recon_trial","SS5",2,2,"rand","pet store.png",6,4,"vultureB.png",NA,NA,NA
"30/07/2021 14:20:17","30/07/2021 08:20:17",56975,3,4382116,"60fe055ba3265b507a386180","Chrome 92.0.4515.107","retrieval_b3",3,"SS5",4,4329.60000002384,"cookiesB.png",1,1,0,"recon_trial","SS5",3,2,"pred","grocery store.png",1,1,"cookiesB.png",NA,NA,NA
"30/07/2021 14:20:20","30/07/2021 08:20:19",56975,3,4382116,"60fe055ba3265b507a386180","Chrome 92.0.4515.107","retrieval_b3",3,"SS5",5,1600.60000002384,"honeycombB.png",1,1,0,"recon_trial","SS5",3,2,"pred","grocery store.png",2,4,"honeycombB.png",NA,NA,NA
"30/07/2021 14:20:22","30/07/2021 08:20:21",56975,3,4382116,"60fe055ba3265b507a386180","Chrome 92.0.4515.107","retrieval_b3",3,"SS5",6,2076.5,"ravioliB.png",1,1,0,"recon_trial","SS5",3,2,"pred","grocery store.png",3,3,"ravioliB.png",NA,NA,NA
"30/07/2021 14:20:24","30/07/2021 08:20:23",56975,3,4382116,"60fe055ba3265b507a386180","Chrome 92.0.4515.107","retrieval_b3",3,"SS5",7,2508,"bellpeppersB.png",1,0,0,"recon_trial","SS5",3,2,"pred","grocery store.png",4,4,"bakedpotatoB.png",NA,NA,NA
"30/07/2021 14:20:25","30/07/2021 08:20:24",56975,3,4382116,"60fe055ba3265b507a386180","Chrome 92.0.4515.107","retrieval_b3",3,"SS5",8,1097.19999992847,"bakedpotatoB.png",1,0,0,"recon_trial","SS5",3,2,"pred","grocery store.png",5,2,"bellpeppersB.png",NA,NA,NA
"30/07/2021 14:20:26","30/07/2021 08:20:25",56975,3,4382116,"60fe055ba3265b507a386180","Chrome 92.0.4515.107","retrieval_b3",3,"SS5",9,1148.29999995232,"hotdogB.png",1,1,0,"recon_trial","SS5",3,2,"pred","grocery store.png",6,3,"hotdogB.png",NA,NA,NA
"30/07/2021 14:20:30","30/07/2021 08:20:29",56975,3,4382116,"60fe055ba3265b507a386180","Chrome 92.0.4515.107","retrieval_b3",3,"SS5",11,2789,"hammerheadsharkB.png",1,1,0,"recon_trial","SS5",3,1,"rand","pet store.png",1,2,"hammerheadsharkB.png",NA,NA,NA
"30/07/2021 14:20:31","30/07/2021 08:20:31",56975,3,4382116,"60fe055ba3265b507a386180","Chrome 92.0.4515.107","retrieval_b3",3,"SS5",12,1303.60000002384,"wolfB.png",1,1,0,"recon_trial","SS5",3,1,"rand","pet store.png",2,4,"wolfB.png",NA,NA,NA
"30/07/2021 14:20:33","30/07/2021 08:20:32",56975,3,4382116,"60fe055ba3265b507a386180","Chrome 92.0.4515.107","retrieval_b3",3,"SS5",13,1374.09999990463,"deerB.png",1,1,0,"recon_trial","SS5",3,1,"rand","pet store.png",3,3,"deerB.png",NA,NA,NA
"30/07/2021 14:20:34","30/07/2021 08:20:34",56975,3,4382116,"60fe055ba3265b507a386180","Chrome 92.0.4515.107","retrieval_b3",3,"SS5",14,1970.39999997616,"toucanB.png",1,1,0,"recon_trial","SS5",3,1,"rand","pet store.png",4,1,"toucanB.png",NA,NA,NA
"30/07/2021 14:20:36","30/07/2021 08:20:35",56975,3,4382116,"60fe055ba3265b507a386180","Chrome 92.0.4515.107","retrieval_b3",3,"SS5",15,1314.5,"cardinalB.png",1,1,0,"recon_trial","SS5",3,1,"rand","pet store.png",5,4,"cardinalB.png",NA,NA,NA
"30/07/2021 14:20:37","30/07/2021 08:20:36",56975,3,4382116,"60fe055ba3265b507a386180","Chrome 92.0.4515.107","retrieval_b3",3,"SS5",16,1130,"flamingoB.png",1,1,0,"recon_trial","SS5",3,1,"rand","pet store.png",6,1,"flamingoB.png",NA,NA,NA
"30/07/2021 14:23:37","30/07/2021 08:23:37",56975,3,4382116,"60fe055ba3265b507a386180","Chrome 92.0.4515.107","retrieval_b4",3,"SS5",11,4083.29999995232,"gooseB.png",1,1,0,"recon_trial","SS5",4,1,"rand","pet store.png",1,4,"gooseB.png",NA,NA,NA
"30/07/2021 14:23:40","30/07/2021 08:23:39",56975,3,4382116,"60fe055ba3265b507a386180","Chrome 92.0.4515.107","retrieval_b4",3,"SS5",12,2167.90000009537,"goldenretrieverB.png",1,1,0,"recon_trial","SS5",4,1,"rand","pet store.png",2,2,"goldenretrieverB.png",NA,NA,NA
"30/07/2021 14:23:41","30/07/2021 08:23:41",56975,3,4382116,"60fe055ba3265b507a386180","Chrome 92.0.4515.107","retrieval_b4",3,"SS5",13,1616.69999992847,"pantherB.png",1,1,0,"recon_trial","SS5",4,1,"rand","pet store.png",3,3,"pantherB.png",NA,NA,NA
"30/07/2021 14:23:43","30/07/2021 08:23:43",56975,3,4382116,"60fe055ba3265b507a386180","Chrome 92.0.4515.107","retrieval_b4",3,"SS5",14,1743.89999997616,"hippoB.png",1,1,0,"recon_trial","SS5",4,1,"rand","pet store.png",4,1,"hippoB.png",NA,NA,NA
"30/07/2021 14:23:44","30/07/2021 08:23:44",56975,3,4382116,"60fe055ba3265b507a386180","Chrome 92.0.4515.107","retrieval_b4",3,"SS5",15,1395.79999995232,"mooseB.png",1,1,0,"recon_trial","SS5",4,1,"rand","pet store.png",5,2,"mooseB.png",NA,NA,NA
"30/07/2021 14:23:45","30/07/2021 08:23:45",56975,3,4382116,"60fe055ba3265b507a386180","Chrome 92.0.4515.107","retrieval_b4",3,"SS5",16,1277.10000002384,"hermitcrabB.png",1,1,0,"recon_trial","SS5",4,1,"rand","pet store.png",6,1,"hermitcrabB.png",NA,NA,NA
"30/07/2021 14:23:50","30/07/2021 08:23:49",56975,3,4382116,"60fe055ba3265b507a386180","Chrome 92.0.4515.107","retrieval_b4",3,"SS5",4,2953.20000004768,"baconB.png",1,1,0,"recon_trial","SS5",4,3,"pred","grocery store.png",1,1,"baconB.png",NA,NA,NA
"30/07/2021 14:23:52","30/07/2021 08:23:52",56975,3,4382116,"60fe055ba3265b507a386180","Chrome 92.0.4515.107","retrieval_b4",3,"SS5",5,2684.70000004768,"riceB.png",1,1,0,"recon_trial","SS5",4,3,"pred","grocery store.png",2,4,"riceB.png",NA,NA,NA
"30/07/2021 14:23:54","30/07/2021 08:23:54",56975,3,4382116,"60fe055ba3265b507a386180","Chrome 92.0.4515.107","retrieval_b4",3,"SS5",6,1787,"potatochipsB.png",1,1,0,"recon_trial","SS5",4,3,"pred","grocery store.png",3,3,"potatochipsB.png",NA,NA,NA
"30/07/2021 14:23:55","30/07/2021 08:23:55",56975,3,4382116,"60fe055ba3265b507a386180","Chrome 92.0.4515.107","retrieval_b4",3,"SS5",7,1385.20000004768,"tacoB.png",1,1,0,"recon_trial","SS5",4,3,"pred","grocery store.png",4,4,"tacoB.png",NA,NA,NA
"30/07/2021 14:23:57","30/07/2021 08:23:57",56975,3,4382116,"60fe055ba3265b507a386180","Chrome 92.0.4515.107","retrieval_b4",3,"SS5",8,1338.69999992847,"edamameB.png",1,1,0,"recon_trial","SS5",4,3,"pred","grocery store.png",5,2,"edamameB.png",NA,NA,NA
"30/07/2021 14:23:58","30/07/2021 08:23:58",56975,3,4382116,"60fe055ba3265b507a386180","Chrome 92.0.4515.107","retrieval_b4",3,"SS5",9,1109.60000002384,"cherriesB.png",1,1,0,"recon_trial","SS5",4,3,"pred","grocery store.png",6,3,"cherriesB.png",NA,NA,NA
"30/07/2021 14:28:27","30/07/2021 08:28:27",56975,3,4382116,"60fe055ba3265b507a386180","Chrome 92.0.4515.107","retrieval_b5",3,"SS5",4,3050.20000004768,"fortunecookieB.png",1,1,0,"recon_trial","SS5",5,2,"pred","grocery store.png",1,1,"fortunecookieB.png",NA,NA,NA
"30/07/2021 14:28:30","30/07/2021 08:28:30",56975,3,4382116,"60fe055ba3265b507a386180","Chrome 92.0.4515.107","retrieval_b5",3,"SS5",5,2993.70000004768,"saladB.png",1,1,0,"recon_trial","SS5",5,2,"pred","grocery store.png",2,4,"saladB.png",NA,NA,NA
"30/07/2021 14:28:35","30/07/2021 08:28:35",56975,3,4382116,"60fe055ba3265b507a386180","Chrome 92.0.4515.107","retrieval_b5",3,"SS5",6,5062.20000004768,"acornsquashB.png",1,1,0,"recon_trial","SS5",5,2,"pred","grocery store.png",3,3,"acornsquashB.png",NA,NA,NA
"30/07/2021 14:28:36","30/07/2021 08:28:36",56975,3,4382116,"60fe055ba3265b507a386180","Chrome 92.0.4515.107","retrieval_b5",3,"SS5",7,1448.80000007153,"beetB.png",1,1,0,"recon_trial","SS5",5,2,"pred","grocery store.png",4,4,"beetB.png",NA,NA,NA
"30/07/2021 14:28:37","30/07/2021 08:28:37",56975,3,4382116,"60fe055ba3265b507a386180","Chrome 92.0.4515.107","retrieval_b5",3,"SS5",8,1156.70000004768,"cheeseB.png",1,1,0,"recon_trial","SS5",5,2,"pred","grocery store.png",5,2,"cheeseB.png",NA,NA,NA
"30/07/2021 14:28:38","30/07/2021 08:28:38",56975,3,4382116,"60fe055ba3265b507a386180","Chrome 92.0.4515.107","retrieval_b5",3,"SS5",9,1015.19999992847,"starfruitB.png",1,1,0,"recon_trial","SS5",5,2,"pred","grocery store.png",6,3,"starfruitB.png",NA,NA,NA
"30/07/2021 14:28:43","30/07/2021 08:28:43",56975,3,4382116,"60fe055ba3265b507a386180","Chrome 92.0.4515.107","retrieval_b5",3,"SS5",11,3244.39999997616,"crowB.png",1,1,0,"recon_trial","SS5",5,4,"rand","pet store.png",1,3,"crowB.png",NA,NA,NA
"30/07/2021 14:28:45","30/07/2021 08:28:45",56975,3,4382116,"60fe055ba3265b507a386180","Chrome 92.0.4515.107","retrieval_b5",3,"SS5",12,1869.40000009537,"squidB.png",1,1,0,"recon_trial","SS5",5,4,"rand","pet store.png",2,4,"squidB.png",NA,NA,NA
"30/07/2021 14:28:46","30/07/2021 08:28:46",56975,3,4382116,"60fe055ba3265b507a386180","Chrome 92.0.4515.107","retrieval_b5",3,"SS5",13,1288,"boarB.png",1,0,0,"recon_trial","SS5",5,4,"rand","pet store.png",3,2,"emuB.png",NA,NA,NA
"30/07/2021 14:28:49","30/07/2021 08:28:49",56975,3,4382116,"60fe055ba3265b507a386180","Chrome 92.0.4515.107","retrieval_b5",3,"SS5",14,2720.40000009537,"emuB.png",1,0,0,"recon_trial","SS5",5,4,"rand","pet store.png",4,1,"foxB.png",NA,NA,NA
"30/07/2021 14:28:50","30/07/2021 08:28:50",56975,3,4382116,"60fe055ba3265b507a386180","Chrome 92.0.4515.107","retrieval_b5",3,"SS5",15,1236.60000002384,"foxB.png",1,0,0,"recon_trial","SS5",5,4,"rand","pet store.png",5,4,"boarB.png",NA,NA,NA
"30/07/2021 14:28:52","30/07/2021 08:28:52",56975,3,4382116,"60fe055ba3265b507a386180","Chrome 92.0.4515.107","retrieval_b5",3,"SS5",16,1671.60000002384,"pandaB.png",1,1,0,"recon_trial","SS5",5,4,"rand","pet store.png",6,1,"pandaB.png",NA,NA,NA
"30/07/2021 14:31:48","30/07/2021 08:31:48",56975,3,4382116,"60fe055ba3265b507a386180","Chrome 92.0.4515.107","retrieval_b6",3,"SS5",4,3283.79999995232,"chocolatemilkB.png",1,1,0,"recon_trial","SS5",6,4,"pred","grocery store.png",1,1,"chocolatemilkB.png",NA,NA,NA
"30/07/2021 14:31:49","30/07/2021 08:31:49",56975,3,4382116,"60fe055ba3265b507a386180","Chrome 92.0.4515.107","retrieval_b6",3,"SS5",5,1485.70000004768,"carrotsB.png",1,1,0,"recon_trial","SS5",6,4,"pred","grocery store.png",2,4,"carrotsB.png",NA,NA,NA
"30/07/2021 14:31:53","30/07/2021 08:31:53",56975,3,4382116,"60fe055ba3265b507a386180","Chrome 92.0.4515.107","retrieval_b6",3,"SS5",6,3324.29999995232,"asparagusB.png",1,1,0,"recon_trial","SS5",6,4,"pred","grocery store.png",3,3,"asparagusB.png",NA,NA,NA
"30/07/2021 14:31:54","30/07/2021 08:31:54",56975,3,4382116,"60fe055ba3265b507a386180","Chrome 92.0.4515.107","retrieval_b6",3,"SS5",7,1318,"lycheeB.png",1,1,0,"recon_trial","SS5",6,4,"pred","grocery store.png",4,4,"lycheeB.png",NA,NA,NA
"30/07/2021 14:31:55","30/07/2021 08:31:55",56975,3,4382116,"60fe055ba3265b507a386180","Chrome 92.0.4515.107","retrieval_b6",3,"SS5",8,1203.39999997616,"burgerB.png",1,1,0,"recon_trial","SS5",6,4,"pred","grocery store.png",5,2,"burgerB.png",NA,NA,NA
"30/07/2021 14:31:57","30/07/2021 08:31:57",56975,3,4382116,"60fe055ba3265b507a386180","Chrome 92.0.4515.107","retrieval_b6",3,"SS5",9,2002.89999997616,"peanutbutterB.png",1,1,0,"recon_trial","SS5",6,4,"pred","grocery store.png",6,3,"peanutbutterB.png",NA,NA,NA
"30/07/2021 14:32:00","30/07/2021 08:32:00",56975,3,4382116,"60fe055ba3265b507a386180","Chrome 92.0.4515.107","retrieval_b6",3,"SS5",11,1818.70000004768,"surgeonfishB.png",1,1,0,"recon_trial","SS5",6,3,"rand","pet store.png",1,4,"surgeonfishB.png",NA,NA,NA
"30/07/2021 14:32:02","30/07/2021 08:32:02",56975,3,4382116,"60fe055ba3265b507a386180","Chrome 92.0.4515.107","retrieval_b6",3,"SS5",12,2118.10000002384,"pelicanB.png",1,1,0,"recon_trial","SS5",6,3,"rand","pet store.png",2,2,"pelicanB.png",NA,NA,NA
"30/07/2021 14:32:04","30/07/2021 08:32:04",56975,3,4382116,"60fe055ba3265b507a386180","Chrome 92.0.4515.107","retrieval_b6",3,"SS5",13,1472.60000002384,"bearB.png",1,1,0,"recon_trial","SS5",6,3,"rand","pet store.png",3,3,"bearB.png",NA,NA,NA
"30/07/2021 14:32:08","30/07/2021 08:32:08",56975,3,4382116,"60fe055ba3265b507a386180","Chrome 92.0.4515.107","retrieval_b6",3,"SS5",14,4452.60000002384,"crabB.png",1,1,0,"recon_trial","SS5",6,3,"rand","pet store.png",4,1,"crabB.png",NA,NA,NA
"30/07/2021 14:32:10","30/07/2021 08:32:09",56975,3,4382116,"60fe055ba3265b507a386180","Chrome 92.0.4515.107","retrieval_b6",3,"SS5",15,1247.30000007153,"pugB.png",1,1,0,"recon_trial","SS5",6,3,"rand","pet store.png",5,3,"pugB.png",NA,NA,NA
"30/07/2021 14:32:11","30/07/2021 08:32:11",56975,3,4382116,"60fe055ba3265b507a386180","Chrome 92.0.4515.107","retrieval_b6",3,"SS5",16,1478.89999997616,"pigB.png",1,1,0,"recon_trial","SS5",6,3,"rand","pet store.png",6,2,"pigB.png",NA,NA,NA
"30/07/2021 14:37:17","30/07/2021 08:37:16",56975,3,4382116,"60fe055ba3265b507a386180","Chrome 92.0.4515.107","retrieval_b7",3,"SS5",4,2750.29999995232,"eggB.png",1,1,0,"recon_trial","SS5",7,3,"pred","grocery store.png",1,1,"eggB.png",NA,NA,NA
"30/07/2021 14:37:18","30/07/2021 08:37:18",56975,3,4382116,"60fe055ba3265b507a386180","Chrome 92.0.4515.107","retrieval_b7",3,"SS5",5,1260.90000009537,"burritoB.png",1,1,0,"recon_trial","SS5",7,3,"pred","grocery store.png",2,4,"burritoB.png",NA,NA,NA
"30/07/2021 14:37:22","30/07/2021 08:37:21",56975,3,4382116,"60fe055ba3265b507a386180","Chrome 92.0.4515.107","retrieval_b7",3,"SS5",6,3565.5,"broccoliB.png",1,0,0,"recon_trial","SS5",7,3,"pred","grocery store.png",3,3,"icecreamsandwichB.png",NA,NA,NA
"30/07/2021 14:37:23","30/07/2021 08:37:23",56975,3,4382116,"60fe055ba3265b507a386180","Chrome 92.0.4515.107","retrieval_b7",3,"SS5",7,2014.60000002384,"pizzaB.png",1,1,0,"recon_trial","SS5",7,3,"pred","grocery store.png",4,4,"pizzaB.png",NA,NA,NA
"30/07/2021 14:37:25","30/07/2021 08:37:25",56975,3,4382116,"60fe055ba3265b507a386180","Chrome 92.0.4515.107","retrieval_b7",3,"SS5",8,1167.70000004768,"icecreamsandwichB.png",1,0,0,"recon_trial","SS5",7,3,"pred","grocery store.png",5,2,"broccoliB.png",NA,NA,NA
"30/07/2021 14:37:26","30/07/2021 08:37:26",56975,3,4382116,"60fe055ba3265b507a386180","Chrome 92.0.4515.107","retrieval_b7",3,"SS5",9,1266.90000009537,"milkB.png",1,1,0,"recon_trial","SS5",7,3,"pred","grocery store.png",6,3,"milkB.png",NA,NA,NA
"30/07/2021 14:37:34","30/07/2021 08:37:34",56975,3,4382116,"60fe055ba3265b507a386180","Chrome 92.0.4515.107","retrieval_b7",3,"SS5",11,7196.80000007153,"bloodhoundB.png",1,1,0,"recon_trial","SS5",7,4,"rand","pet store.png",1,3,"bloodhoundB.png",NA,NA,NA
"30/07/2021 14:37:36","30/07/2021 08:37:36",56975,3,4382116,"60fe055ba3265b507a386180","Chrome 92.0.4515.107","retrieval_b7",3,"SS5",12,2336.39999997616,"rabbitB.png",1,1,0,"recon_trial","SS5",7,4,"rand","pet store.png",2,1,"rabbitB.png",NA,NA,NA
"30/07/2021 14:37:41","30/07/2021 08:37:41",56975,3,4382116,"60fe055ba3265b507a386180","Chrome 92.0.4515.107","retrieval_b7",3,"SS5",13,4422.40000009537,"bettafishB.png",1,1,0,"recon_trial","SS5",7,4,"rand","pet store.png",3,4,"bettafishB.png",NA,NA,NA
"30/07/2021 14:37:42","30/07/2021 08:37:42",56975,3,4382116,"60fe055ba3265b507a386180","Chrome 92.0.4515.107","retrieval_b7",3,"SS5",14,952.800000071526,"sheepB.png",1,1,0,"recon_trial","SS5",7,4,"rand","pet store.png",4,2,"sheepB.png",NA,NA,NA
"30/07/2021 14:37:45","30/07/2021 08:37:45",56975,3,4382116,"60fe055ba3265b507a386180","Chrome 92.0.4515.107","retrieval_b7",3,"SS5",15,3215.59999990463,"cowB.png",1,1,0,"recon_trial","SS5",7,4,"rand","pet store.png",5,4,"cowB.png",NA,NA,NA
"30/07/2021 14:37:46","30/07/2021 08:37:46",56975,3,4382116,"60fe055ba3265b507a386180","Chrome 92.0.4515.107","retrieval_b7",3,"SS5",16,1046.70000004768,"hedgehogB.png",1,1,0,"recon_trial","SS5",7,4,"rand","pet store.png",6,1,"hedgehogB.png",NA,NA,NA
"30/07/2021 14:40:48","30/07/2021 08:40:48",56975,3,4382116,"60fe055ba3265b507a386180","Chrome 92.0.4515.107","retrieval_b8",3,"SS5",11,8423.40000009537,"cheetahB.png",1,1,0,"recon_trial","SS5",8,2,"rand","pet store.png",1,3,"cheetahB.png",NA,NA,NA
"30/07/2021 14:40:52","30/07/2021 08:40:52",56975,3,4382116,"60fe055ba3265b507a386180","Chrome 92.0.4515.107","retrieval_b8",3,"SS5",12,4132.69999992847,"manateeB.png",1,0,0,"recon_trial","SS5",8,2,"rand","pet store.png",2,4,"chimpB.png",NA,NA,NA
"30/07/2021 14:40:53","30/07/2021 08:40:53",56975,3,4382116,"60fe055ba3265b507a386180","Chrome 92.0.4515.107","retrieval_b8",3,"SS5",13,932.899999976158,"ladybugB.png",1,1,0,"recon_trial","SS5",8,2,"rand","pet store.png",3,2,"ladybugB.png",NA,NA,NA
"30/07/2021 14:40:55","30/07/2021 08:40:54",56975,3,4382116,"60fe055ba3265b507a386180","Chrome 92.0.4515.107","retrieval_b8",3,"SS5",14,1052.10000002384,"chimpB.png",1,0,0,"recon_trial","SS5",8,2,"rand","pet store.png",4,4,"manateeB.png",NA,NA,NA
"30/07/2021 14:40:55","30/07/2021 08:40:55",56975,3,4382116,"60fe055ba3265b507a386180","Chrome 92.0.4515.107","retrieval_b8",3,"SS5",15,814.300000071526,"elephantB.png",1,0,0,"recon_trial","SS5",8,2,"rand","pet store.png",5,1,"eagleB.png",NA,NA,NA
"30/07/2021 14:40:57","30/07/2021 08:40:56",56975,3,4382116,"60fe055ba3265b507a386180","Chrome 92.0.4515.107","retrieval_b8",3,"SS5",16,1014.29999995232,"eagleB.png",1,0,0,"recon_trial","SS5",8,2,"rand","pet store.png",6,2,"elephantB.png",NA,NA,NA
"30/07/2021 14:41:02","30/07/2021 08:41:02",56975,3,4382116,"60fe055ba3265b507a386180","Chrome 92.0.4515.107","retrieval_b8",3,"SS5",4,4159,"brusselsproutsB.png",1,1,0,"recon_trial","SS5",8,4,"pred","grocery store.png",1,1,"brusselsproutsB.png",NA,NA,NA
"30/07/2021 14:41:06","30/07/2021 08:41:06",56975,3,4382116,"60fe055ba3265b507a386180","Chrome 92.0.4515.107","retrieval_b8",3,"SS5",5,3938.90000009537,"breadB.png",1,1,0,"recon_trial","SS5",8,4,"pred","grocery store.png",2,4,"breadB.png",NA,NA,NA
"30/07/2021 14:41:09","30/07/2021 08:41:08",56975,3,4382116,"60fe055ba3265b507a386180","Chrome 92.0.4515.107","retrieval_b8",3,"SS5",6,2742.69999992847,"mushroomsB.png",1,1,0,"recon_trial","SS5",8,4,"pred","grocery store.png",3,3,"mushroomsB.png",NA,NA,NA
"30/07/2021 14:41:12","30/07/2021 08:41:12",56975,3,4382116,"60fe055ba3265b507a386180","Chrome 92.0.4515.107","retrieval_b8",3,"SS5",7,3584.80000007153,"lemonB.png",1,0,0,"recon_trial","SS5",8,4,"pred","grocery store.png",4,4,"soupB.png",NA,NA,NA
"30/07/2021 14:41:13","30/07/2021 08:41:13",56975,3,4382116,"60fe055ba3265b507a386180","Chrome 92.0.4515.107","retrieval_b8",3,"SS5",8,745,"soupB.png",1,0,0,"recon_trial","SS5",8,4,"pred","grocery store.png",5,2,"lemonB.png",NA,NA,NA
"30/07/2021 14:41:14","30/07/2021 08:41:14",56975,3,4382116,"60fe055ba3265b507a386180","Chrome 92.0.4515.107","retrieval_b8",3,"SS5",9,984.899999976158,"donutB.png",1,1,0,"recon_trial","SS5",8,4,"pred","grocery store.png",6,3,"donutB.png",NA,NA,NA
"30/07/2021 14:12:36","30/07/2021 10:12:36",56975,3,4382158,"60fffc35ee80fc69ec730cea","Chrome 92.0.4515.107","retrieval_b1",4,"SS3",4,5887.09999990463,"lycheeA.png",1,1,0,"recon_trial","SS3",1,3,"pred","grocery store.png",1,3,"lycheeA.png",NA,NA,NA
"30/07/2021 14:12:39","30/07/2021 10:12:38",56975,3,4382158,"60fffc35ee80fc69ec730cea","Chrome 92.0.4515.107","retrieval_b1",4,"SS3",5,2579,"nachosA.png",1,1,0,"recon_trial","SS3",1,3,"pred","grocery store.png",2,2,"nachosA.png",NA,NA,NA
"30/07/2021 14:12:40","30/07/2021 10:12:40",56975,3,4382158,"60fffc35ee80fc69ec730cea","Chrome 92.0.4515.107","retrieval_b1",4,"SS3",6,1589,"burgerA.png",1,1,0,"recon_trial","SS3",1,3,"pred","grocery store.png",3,4,"burgerA.png",NA,NA,NA
"30/07/2021 14:12:43","30/07/2021 10:12:43",56975,3,4382158,"60fffc35ee80fc69ec730cea","Chrome 92.0.4515.107","retrieval_b1",4,"SS3",7,2737.29999995232,"donutA.png",1,1,0,"recon_trial","SS3",1,3,"pred","grocery store.png",4,2,"donutA.png",NA,NA,NA
"30/07/2021 14:12:44","30/07/2021 10:12:44",56975,3,4382158,"60fffc35ee80fc69ec730cea","Chrome 92.0.4515.107","retrieval_b1",4,"SS3",8,920.899999976158,"appleA.png",1,1,0,"recon_trial","SS3",1,3,"pred","grocery store.png",5,1,"appleA.png",NA,NA,NA
"30/07/2021 14:12:44","30/07/2021 10:12:44",56975,3,4382158,"60fffc35ee80fc69ec730cea","Chrome 92.0.4515.107","retrieval_b1",4,"SS3",9,205.099999904633,"appleA.png",1,0,0,"recon_trial","SS3",1,3,"pred","grocery store.png",6,4,"pineappleA.png",NA,NA,NA
"30/07/2021 14:12:51","30/07/2021 10:12:51",56975,3,4382158,"60fffc35ee80fc69ec730cea","Chrome 92.0.4515.107","retrieval_b1",4,"SS3",11,4630.60000002384,"bisonA.png",1,1,0,"recon_trial","SS3",1,4,"rand","pet store.png",1,2,"bisonA.png",NA,NA,NA
"30/07/2021 14:12:53","30/07/2021 10:12:53",56975,3,4382158,"60fffc35ee80fc69ec730cea","Chrome 92.0.4515.107","retrieval_b1",4,"SS3",12,2187.39999997616,"elephantA.png",1,1,0,"recon_trial","SS3",1,4,"rand","pet store.png",2,3,"elephantA.png",NA,NA,NA
"30/07/2021 14:12:55","30/07/2021 10:12:55",56975,3,4382158,"60fffc35ee80fc69ec730cea","Chrome 92.0.4515.107","retrieval_b1",4,"SS3",13,1785.60000002384,"catA.png",1,1,0,"recon_trial","SS3",1,4,"rand","pet store.png",3,1,"catA.png",NA,NA,NA
"30/07/2021 14:12:58","30/07/2021 10:12:58",56975,3,4382158,"60fffc35ee80fc69ec730cea","Chrome 92.0.4515.107","retrieval_b1",4,"SS3",14,3768.60000002384,"kangarooA.png",1,1,0,"recon_trial","SS3",1,4,"rand","pet store.png",4,3,"kangarooA.png",NA,NA,NA
"30/07/2021 14:13:00","30/07/2021 10:13:00",56975,3,4382158,"60fffc35ee80fc69ec730cea","Chrome 92.0.4515.107","retrieval_b1",4,"SS3",15,1846.79999995232,"rabbitA.png",1,0,0,"recon_trial","SS3",1,4,"rand","pet store.png",5,4,"foxA.png",NA,NA,NA
"30/07/2021 14:13:02","30/07/2021 10:13:02",56975,3,4382158,"60fffc35ee80fc69ec730cea","Chrome 92.0.4515.107","retrieval_b1",4,"SS3",16,1544.70000004768,"foxA.png",1,0,0,"recon_trial","SS3",1,4,"rand","pet store.png",6,1,"rabbitA.png",NA,NA,NA
"30/07/2021 14:16:18","30/07/2021 10:16:18",56975,3,4382158,"60fffc35ee80fc69ec730cea","Chrome 92.0.4515.107","retrieval_b2",3,"SS3",11,2014.19999992847,"bettafishA.png",1,1,0,"recon_trial","SS3",2,1,"rand","pet store.png",1,2,"bettafishA.png",NA,NA,NA
"30/07/2021 14:16:22","30/07/2021 10:16:22",56975,3,4382158,"60fffc35ee80fc69ec730cea","Chrome 92.0.4515.107","retrieval_b2",3,"SS3",12,4020,"penguinA.png",1,1,0,"recon_trial","SS3",2,1,"rand","pet store.png",2,1,"penguinA.png",NA,NA,NA
"30/07/2021 14:16:23","30/07/2021 10:16:23",56975,3,4382158,"60fffc35ee80fc69ec730cea","Chrome 92.0.4515.107","retrieval_b2",3,"SS3",13,1323.29999995232,"butterflyA.png",1,1,0,"recon_trial","SS3",2,1,"rand","pet store.png",3,4,"butterflyA.png",NA,NA,NA
"30/07/2021 14:16:30","30/07/2021 10:16:30",56975,3,4382158,"60fffc35ee80fc69ec730cea","Chrome 92.0.4515.107","retrieval_b2",3,"SS3",14,7026.39999997616,"cheetahA.png",1,0,0,"recon_trial","SS3",2,1,"rand","pet store.png",4,3,"flamingoA.png",NA,NA,NA
"30/07/2021 14:16:31","30/07/2021 10:16:31",56975,3,4382158,"60fffc35ee80fc69ec730cea","Chrome 92.0.4515.107","retrieval_b2",3,"SS3",15,707.699999928474,"flamingoA.png",1,0,0,"recon_trial","SS3",2,1,"rand","pet store.png",5,1,"gorillaA.png",NA,NA,NA
"30/07/2021 14:16:32","30/07/2021 10:16:31",56975,3,4382158,"60fffc35ee80fc69ec730cea","Chrome 92.0.4515.107","retrieval_b2",3,"SS3",16,587.899999976158,"gorillaA.png",1,0,0,"recon_trial","SS3",2,1,"rand","pet store.png",6,3,"cheetahA.png",NA,NA,NA
"30/07/2021 14:16:37","30/07/2021 10:16:37",56975,3,4382158,"60fffc35ee80fc69ec730cea","Chrome 92.0.4515.107","retrieval_b2",3,"SS3",4,4279.29999995232,"milkA.png",1,1,0,"recon_trial","SS3",2,2,"pred","grocery store.png",1,3,"milkA.png",NA,NA,NA
"30/07/2021 14:16:43","30/07/2021 10:16:43",56975,3,4382158,"60fffc35ee80fc69ec730cea","Chrome 92.0.4515.107","retrieval_b2",3,"SS3",5,6196.29999995232,"pieA.png",1,0,0,"recon_trial","SS3",2,2,"pred","grocery store.png",2,2,"coffeeA.png",NA,NA,NA
"30/07/2021 14:16:44","30/07/2021 10:16:44",56975,3,4382158,"60fffc35ee80fc69ec730cea","Chrome 92.0.4515.107","retrieval_b2",3,"SS3",6,1279.79999995232,"coffeeA.png",1,0,0,"recon_trial","SS3",2,2,"pred","grocery store.png",3,4,"pieA.png",NA,NA,NA
"30/07/2021 14:16:48","30/07/2021 10:16:48",56975,3,4382158,"60fffc35ee80fc69ec730cea","Chrome 92.0.4515.107","retrieval_b2",3,"SS3",7,3336.80000007153,"pancakesA.png",1,1,0,"recon_trial","SS3",2,2,"pred","grocery store.png",4,2,"pancakesA.png",NA,NA,NA
"30/07/2021 14:16:48","30/07/2021 10:16:48",56975,3,4382158,"60fffc35ee80fc69ec730cea","Chrome 92.0.4515.107","retrieval_b2",3,"SS3",8,458.600000023842,"garlicA.png",1,0,0,"recon_trial","SS3",2,2,"pred","grocery store.png",5,1,"ravioliA.png",NA,NA,NA
"30/07/2021 14:16:50","30/07/2021 10:16:49",56975,3,4382158,"60fffc35ee80fc69ec730cea","Chrome 92.0.4515.107","retrieval_b2",3,"SS3",9,1245.20000004768,"garlicA.png",1,1,0,"recon_trial","SS3",2,2,"pred","grocery store.png",6,4,"garlicA.png",NA,NA,NA
"30/07/2021 14:19:48","30/07/2021 10:19:48",56975,3,4382158,"60fffc35ee80fc69ec730cea","Chrome 92.0.4515.107","retrieval_b3",3,"SS3",4,4111.39999997616,"muffinA.png",1,1,0,"recon_trial","SS3",3,1,"pred","grocery store.png",1,3,"muffinA.png",NA,NA,NA
