utc_date,local_date,exp_id,exp_ver,id,prolific_id,browser,task,task_ver,gorilla_counterbalance,trial_row,screen_name,zone_type,rt,response,attempt,accuracy,dishonest,display,counterbalance_order,condition,event_name,seq_pos,correct
14/07/2021 19:22:30,14/07/2021 14:22:38,56975,3,4265656,5e19805e05e1512212e4789a,Firefox 89.0,reminder,2,SS3,20,Screen 1,response_keyboard,988,3,1,1,0,test_trial,SS3,pred,grocery store.png,1,3
14/07/2021 19:22:32,14/07/2021 14:22:39,56975,3,4265656,5e19805e05e1512212e4789a,Firefox 89.0,reminder,2,SS3,21,Screen 1,response_keyboard,797,2,1,1,0,test_trial,SS3,pred,grocery store.png,2,2
14/07/2021 19:22:33,14/07/2021 14:22:41,56975,3,4265656,5e19805e05e1512212e4789a,Firefox 89.0,reminder,2,SS3,22,Screen 1,response_keyboard,603,4,1,1,0,test_trial,SS3,pred,grocery store.png,3,4
14/07/2021 19:22:34,14/07/2021 14:22:42,56975,3,4265656,5e19805e05e1512212e4789a,Firefox 89.0,reminder,2,SS3,23,Screen 1,response_keyboard,546,2,1,1,0,test_trial,SS3,pred,grocery store.png,4,2
14/07/2021 19:22:35,14/07/2021 14:22:43,56975,3,4265656,5e19805e05e1512212e4789a,Firefox 89.0,reminder,2,SS3,24,Screen 1,response_keyboard,487,1,1,1,0,test_trial,SS3,pred,grocery store.png,5,1
14/07/2021 19:22:36,14/07/2021 14:22:44,56975,3,4265656,5e19805e05e1512212e4789a,Firefox 89.0,reminder,2,SS3,25,Screen 1,response_keyboard,420,4,1,1,0,test_trial,SS3,pred,grocery store.png,6,4
14/07/2021 19:22:42,14/07/2021 14:22:49,56975,3,4265656,5e19805e05e1512212e4789a,Firefox 89.0,reminder,2,SS3,28,Screen 1,response_keyboard,1017,3,1,1,0,test_trial,SS3,pred,grocery store.png,1,3
14/07/2021 19:22:43,14/07/2021 14:22:50,56975,3,4265656,5e19805e05e1512212e4789a,Firefox 89.0,reminder,2,SS3,29,Screen 1,response_keyboard,348,2,1,1,0,test_trial,SS3,pred,grocery store.png,2,2
14/07/2021 19:22:44,14/07/2021 14:22:51,56975,3,4265656,5e19805e05e1512212e4789a,Firefox 89.0,reminder,2,SS3,30,Screen 1,response_keyboard,385,4,1,1,0,test_trial,SS3,pred,grocery store.png,3,4
14/07/2021 19:22:45,14/07/2021 14:22:52,56975,3,4265656,5e19805e05e1512212e4789a,Firefox 89.0,reminder,2,SS3,31,Screen 1,response_keyboard,811,2,1,1,0,test_trial,SS3,pred,grocery store.png,4,2
14/07/2021 19:22:46,14/07/2021 14:22:53,56975,3,4265656,5e19805e05e1512212e4789a,Firefox 89.0,reminder,2,SS3,32,Screen 1,response_keyboard,404,1,1,1,0,test_trial,SS3,pred,grocery store.png,5,1
14/07/2021 19:22:47,14/07/2021 14:22:54,56975,3,4265656,5e19805e05e1512212e4789a,Firefox 89.0,reminder,2,SS3,33,Screen 1,response_keyboard,277,4,1,1,0,test_trial,SS3,pred,grocery store.png,6,4
14/07/2021 19:34:01,14/07/2021 15:34:02,56975,3,4265819,60d5d29541e3a5a148be906c,Chrome 91.0.4472.124,reminder,2,SS5,20,Screen 1,response_keyboard,600.3999999985099,1,1,1,0,test_trial,SS5,pred,grocery store.png,1,1
14/07/2021 19:34:02,14/07/2021 15:34:03,56975,3,4265819,60d5d29541e3a5a148be906c,Chrome 91.0.4472.124,reminder,2,SS5,21,Screen 1,response_keyboard,264.69999999925494,4,1,1,0,test_trial,SS5,pred,grocery store.png,2,4
14/07/2021 19:34:03,14/07/2021 15:34:04,56975,3,4265819,60d5d29541e3a5a148be906c,Chrome 91.0.4472.124,reminder,2,SS5,22,Screen 1,response_keyboard,252.5,3,1,1,0,test_trial,SS5,pred,grocery store.png,3,3
14/07/2021 19:34:04,14/07/2021 15:34:04,56975,3,4265819,60d5d29541e3a5a148be906c,Chrome 91.0.4472.124,reminder,2,SS5,23,Screen 1,response_keyboard,227.69999999925494,4,1,1,0,test_trial,SS5,pred,grocery store.png,4,4
14/07/2021 19:34:05,14/07/2021 15:34:05,56975,3,4265819,60d5d29541e3a5a148be906c,Chrome 91.0.4472.124,reminder,2,SS5,24,Screen 1,response_keyboard,179.09999999776483,2,1,1,0,test_trial,SS5,pred,grocery store.png,5,2
14/07/2021 19:34:05,14/07/2021 15:34:06,56975,3,4265819,60d5d29541e3a5a148be906c,Chrome 91.0.4472.124,reminder,2,SS5,25,Screen 1,response_keyboard,235.30000000074506,3,1,1,0,test_trial,SS5,pred,grocery store.png,6,3
14/07/2021 19:34:11,14/07/2021 15:34:11,56975,3,4265819,60d5d29541e3a5a148be906c,Chrome 91.0.4472.124,reminder,2,SS5,28,Screen 1,response_keyboard,521.1999999992549,1,1,1,0,test_trial,SS5,pred,grocery store.png,1,1
14/07/2021 19:34:11,14/07/2021 15:34:12,56975,3,4265819,60d5d29541e3a5a148be906c,Chrome 91.0.4472.124,reminder,2,SS5,29,Screen 1,response_keyboard,142.09999999776483,4,1,1,0,test_trial,SS5,pred,grocery store.png,2,4
14/07/2021 19:34:12,14/07/2021 15:34:12,56975,3,4265819,60d5d29541e3a5a148be906c,Chrome 91.0.4472.124,reminder,2,SS5,30,Screen 1,response_keyboard,71.5,3,1,1,0,test_trial,SS5,pred,grocery store.png,3,3
14/07/2021 19:34:13,14/07/2021 15:34:13,56975,3,4265819,60d5d29541e3a5a148be906c,Chrome 91.0.4472.124,reminder,2,SS5,31,Screen 1,response_keyboard,69.40000000223517,4,1,1,0,test_trial,SS5,pred,grocery store.png,4,4
14/07/2021 19:34:14,14/07/2021 15:34:14,56975,3,4265819,60d5d29541e3a5a148be906c,Chrome 91.0.4472.124,reminder,2,SS5,32,Screen 1,response_keyboard,558.1000000014901,2,1,1,0,test_trial,SS5,pred,grocery store.png,5,2
14/07/2021 19:34:14,14/07/2021 15:34:15,56975,3,4265819,60d5d29541e3a5a148be906c,Chrome 91.0.4472.124,reminder,2,SS5,33,Screen 1,response_keyboard,235.5,3,1,1,0,test_trial,SS5,pred,grocery store.png,6,3
14/07/2021 20:14:21,14/07/2021 13:14:14,56975,3,4266017,60ee922fcc2b54102d237822,Edge 91.0.864.67,reminder,2,SS6,20,Screen 1,response_keyboard,738.4000000059605,1,1,1,0,test_trial,SS6,pred,pet store.png,1,1
14/07/2021 20:14:22,14/07/2021 13:14:14,56975,3,4266017,60ee922fcc2b54102d237822,Edge 91.0.864.67,reminder,2,SS6,21,Screen 1,response_keyboard,237,4,1,1,0,test_trial,SS6,pred,pet store.png,2,4
14/07/2021 20:14:23,14/07/2021 13:14:15,56975,3,4266017,60ee922fcc2b54102d237822,Edge 91.0.864.67,reminder,2,SS6,22,Screen 1,response_keyboard,288.59999999403954,3,1,1,0,test_trial,SS6,pred,pet store.png,3,3
14/07/2021 20:14:24,14/07/2021 13:14:16,56975,3,4266017,60ee922fcc2b54102d237822,Edge 91.0.864.67,reminder,2,SS6,23,Screen 1,response_keyboard,341.29999999701977,4,1,1,0,test_trial,SS6,pred,pet store.png,4,4
14/07/2021 20:14:25,14/07/2021 13:14:17,56975,3,4266017,60ee922fcc2b54102d237822,Edge 91.0.864.67,reminder,2,SS6,24,Screen 1,response_keyboard,311.90000000596046,2,1,1,0,test_trial,SS6,pred,pet store.png,5,2
14/07/2021 20:14:25,14/07/2021 13:14:18,56975,3,4266017,60ee922fcc2b54102d237822,Edge 91.0.864.67,reminder,2,SS6,25,Screen 1,response_keyboard,218.29999999701977,3,1,1,0,test_trial,SS6,pred,pet store.png,6,3
14/07/2021 20:14:31,14/07/2021 13:14:24,56975,3,4266017,60ee922fcc2b54102d237822,Edge 91.0.864.67,reminder,2,SS6,28,Screen 1,response_keyboard,995.4000000059605,1,1,1,0,test_trial,SS6,pred,pet store.png,1,1
14/07/2021 20:14:32,14/07/2021 13:14:24,56975,3,4266017,60ee922fcc2b54102d237822,Edge 91.0.864.67,reminder,2,SS6,29,Screen 1,response_keyboard,122.09999999403954,4,1,1,0,test_trial,SS6,pred,pet store.png,2,4
14/07/2021 20:14:33,14/07/2021 13:14:25,56975,3,4266017,60ee922fcc2b54102d237822,Edge 91.0.864.67,reminder,2,SS6,30,Screen 1,response_keyboard,236.90000000596046,3,1,1,0,test_trial,SS6,pred,pet store.png,3,3
14/07/2021 20:14:33,14/07/2021 13:14:26,56975,3,4266017,60ee922fcc2b54102d237822,Edge 91.0.864.67,reminder,2,SS6,31,Screen 1,response_keyboard,165.5,4,1,1,0,test_trial,SS6,pred,pet store.png,4,4
14/07/2021 20:14:34,14/07/2021 13:14:26,56975,3,4266017,60ee922fcc2b54102d237822,Edge 91.0.864.67,reminder,2,SS6,32,Screen 1,response_keyboard,236.20000000298023,2,1,1,0,test_trial,SS6,pred,pet store.png,5,2
14/07/2021 20:14:35,14/07/2021 13:14:27,56975,3,4266017,60ee922fcc2b54102d237822,Edge 91.0.864.67,reminder,2,SS6,33,Screen 1,response_keyboard,190.40000000596046,3,1,1,0,test_trial,SS6,pred,pet store.png,6,3
14/07/2021 21:19:08,14/07/2021 16:19:09,56975,3,4266444,60edaf90d8aa718a66510d04,Chrome 91.0.4472.124,reminder,2,SS4,20,Screen 1,response_keyboard,1967.9000000059605,3,1,1,0,test_trial,SS4,pred,pet store.png,1,3
14/07/2021 21:19:09,14/07/2021 16:19:09,56975,3,4266444,60edaf90d8aa718a66510d04,Chrome 91.0.4472.124,reminder,2,SS4,21,Screen 1,response_keyboard,148.70000000298023,2,1,1,0,test_trial,SS4,pred,pet store.png,2,2
14/07/2021 21:19:10,14/07/2021 16:19:10,56975,3,4266444,60edaf90d8aa718a66510d04,Chrome 91.0.4472.124,reminder,2,SS4,22,Screen 1,response_keyboard,234.29999999701977,4,1,1,0,test_trial,SS4,pred,pet store.png,3,4
14/07/2021 21:19:11,14/07/2021 16:19:11,56975,3,4266444,60edaf90d8aa718a66510d04,Chrome 91.0.4472.124,reminder,2,SS4,23,Screen 1,response_keyboard,156.6000000089407,2,1,1,0,test_trial,SS4,pred,pet store.png,4,2
14/07/2021 21:19:11,14/07/2021 16:19:12,56975,3,4266444,60edaf90d8aa718a66510d04,Chrome 91.0.4472.124,reminder,2,SS4,24,Screen 1,response_keyboard,36.20000000298023,1,1,1,0,test_trial,SS4,pred,pet store.png,5,1
14/07/2021 21:19:17,14/07/2021 16:19:17,56975,3,4266444,60edaf90d8aa718a66510d04,Chrome 91.0.4472.124,reminder,2,SS4,25,Screen 1,timelimit_screen,5000,NA,NA,0,0,test_trial,SS4,pred,pet store.png,6,4
14/07/2021 21:19:26,14/07/2021 16:19:26,56975,3,4266444,60edaf90d8aa718a66510d04,Chrome 91.0.4472.124,reminder,2,SS4,28,Screen 1,response_keyboard,4200.399999991059,3,1,1,0,test_trial,SS4,pred,pet store.png,1,3
14/07/2021 21:19:27,14/07/2021 16:19:28,56975,3,4266444,60edaf90d8aa718a66510d04,Chrome 91.0.4472.124,reminder,2,SS4,29,Screen 1,response_keyboard,772.8000000119209,2,1,1,0,test_trial,SS4,pred,pet store.png,2,2
14/07/2021 21:19:28,14/07/2021 16:19:28,56975,3,4266444,60edaf90d8aa718a66510d04,Chrome 91.0.4472.124,reminder,2,SS4,30,Screen 1,response_keyboard,295.70000000298023,4,1,1,0,test_trial,SS4,pred,pet store.png,3,4
14/07/2021 21:19:29,14/07/2021 16:19:30,56975,3,4266444,60edaf90d8aa718a66510d04,Chrome 91.0.4472.124,reminder,2,SS4,31,Screen 1,response_keyboard,428.79999999701977,2,1,1,0,test_trial,SS4,pred,pet store.png,4,2
14/07/2021 21:19:30,14/07/2021 16:19:30,56975,3,4266444,60edaf90d8aa718a66510d04,Chrome 91.0.4472.124,reminder,2,SS4,32,Screen 1,response_keyboard,171.90000000596046,1,1,1,0,test_trial,SS4,pred,pet store.png,5,1
14/07/2021 21:19:31,14/07/2021 16:19:31,56975,3,4266444,60edaf90d8aa718a66510d04,Chrome 91.0.4472.124,reminder,2,SS4,33,Screen 1,response_keyboard,127.3999999910593,4,1,1,0,test_trial,SS4,pred,pet store.png,6,4
19/07/2021 19:20:36,19/07/2021 15:20:35,56975,3,4297756,60edf5baeda27703883525c6,Chrome 91.0.4472.124,reminder,2,SS4,20,Screen 1,response_keyboard,711.4000000059605,3,1,1,0,test_trial,SS4,pred,pet store.png,1,3
19/07/2021 19:20:37,19/07/2021 15:20:36,56975,3,4297756,60edf5baeda27703883525c6,Chrome 91.0.4472.124,reminder,2,SS4,21,Screen 1,response_keyboard,874.2000000178814,2,1,1,0,test_trial,SS4,pred,pet store.png,2,2
19/07/2021 19:20:38,19/07/2021 15:20:37,56975,3,4297756,60edf5baeda27703883525c6,Chrome 91.0.4472.124,reminder,2,SS4,22,Screen 1,response_keyboard,568.8999999761581,4,1,1,0,test_trial,SS4,pred,pet store.png,3,4
19/07/2021 19:20:39,19/07/2021 15:20:39,56975,3,4297756,60edf5baeda27703883525c6,Chrome 91.0.4472.124,reminder,2,SS4,23,Screen 1,response_keyboard,635.4000000059605,2,1,1,0,test_trial,SS4,pred,pet store.png,4,2
19/07/2021 19:20:40,19/07/2021 15:20:39,56975,3,4297756,60edf5baeda27703883525c6,Chrome 91.0.4472.124,reminder,2,SS4,24,Screen 1,response_keyboard,322.59999999403954,1,1,1,0,test_trial,SS4,pred,pet store.png,5,1
19/07/2021 19:20:41,19/07/2021 15:20:40,56975,3,4297756,60edf5baeda27703883525c6,Chrome 91.0.4472.124,reminder,2,SS4,25,Screen 1,response_keyboard,261.5,4,1,1,0,test_trial,SS4,pred,pet store.png,6,4
19/07/2021 19:20:46,19/07/2021 15:20:45,56975,3,4297756,60edf5baeda27703883525c6,Chrome 91.0.4472.124,reminder,2,SS4,28,Screen 1,response_keyboard,426.30000001192093,3,1,1,0,test_trial,SS4,pred,pet store.png,1,3
19/07/2021 19:20:47,19/07/2021 15:20:47,56975,3,4297756,60edf5baeda27703883525c6,Chrome 91.0.4472.124,reminder,2,SS4,29,Screen 1,response_keyboard,546.3000000119209,2,1,1,0,test_trial,SS4,pred,pet store.png,2,2
19/07/2021 19:20:49,19/07/2021 15:20:48,56975,3,4297756,60edf5baeda27703883525c6,Chrome 91.0.4472.124,reminder,2,SS4,30,Screen 1,response_keyboard,541.8999999761581,4,1,1,0,test_trial,SS4,pred,pet store.png,3,4
19/07/2021 19:20:50,19/07/2021 15:20:49,56975,3,4297756,60edf5baeda27703883525c6,Chrome 91.0.4472.124,reminder,2,SS4,31,Screen 1,response_keyboard,720.1999999880791,2,1,1,0,test_trial,SS4,pred,pet store.png,4,2
19/07/2021 19:20:51,19/07/2021 15:20:50,56975,3,4297756,60edf5baeda27703883525c6,Chrome 91.0.4472.124,reminder,2,SS4,32,Screen 1,response_keyboard,368.19999998807907,1,1,1,0,test_trial,SS4,pred,pet store.png,5,1
19/07/2021 19:20:52,19/07/2021 15:20:51,56975,3,4297756,60edf5baeda27703883525c6,Chrome 91.0.4472.124,reminder,2,SS4,33,Screen 1,response_keyboard,445.40000000596046,4,1,1,0,test_trial,SS4,pred,pet store.png,6,4
19/07/2021 19:28:25,19/07/2021 15:28:25,56975,3,4297881,5e9cef3a035d9021d21b24dd,Firefox 90.0,reminder,2,SS1,20,Screen 1,response_keyboard,902,1,1,1,0,test_trial,SS1,pred,grocery store.png,1,1
19/07/2021 19:28:26,19/07/2021 15:28:26,56975,3,4297881,5e9cef3a035d9021d21b24dd,Firefox 90.0,reminder,2,SS1,21,Screen 1,response_keyboard,493,4,1,1,0,test_trial,SS1,pred,grocery store.png,2,4
19/07/2021 19:28:27,19/07/2021 15:28:27,56975,3,4297881,5e9cef3a035d9021d21b24dd,Firefox 90.0,reminder,2,SS1,22,Screen 1,response_keyboard,599,3,1,1,0,test_trial,SS1,pred,grocery store.png,3,3
19/07/2021 19:28:28,19/07/2021 15:28:28,56975,3,4297881,5e9cef3a035d9021d21b24dd,Firefox 90.0,reminder,2,SS1,23,Screen 1,response_keyboard,476,4,1,1,0,test_trial,SS1,pred,grocery store.png,4,4
19/07/2021 19:28:29,19/07/2021 15:28:29,56975,3,4297881,5e9cef3a035d9021d21b24dd,Firefox 90.0,reminder,2,SS1,24,Screen 1,response_keyboard,514,2,1,1,0,test_trial,SS1,pred,grocery store.png,5,2
19/07/2021 19:28:30,19/07/2021 15:28:30,56975,3,4297881,5e9cef3a035d9021d21b24dd,Firefox 90.0,reminder,2,SS1,25,Screen 1,response_keyboard,358,3,1,1,0,test_trial,SS1,pred,grocery store.png,6,3
19/07/2021 19:28:35,19/07/2021 15:28:36,56975,3,4297881,5e9cef3a035d9021d21b24dd,Firefox 90.0,reminder,2,SS1,28,Screen 1,response_keyboard,1105,1,1,1,0,test_trial,SS1,pred,grocery store.png,1,1
19/07/2021 19:28:36,19/07/2021 15:28:36,56975,3,4297881,5e9cef3a035d9021d21b24dd,Firefox 90.0,reminder,2,SS1,29,Screen 1,response_keyboard,209,4,1,1,0,test_trial,SS1,pred,grocery store.png,2,4
19/07/2021 19:28:37,19/07/2021 15:28:37,56975,3,4297881,5e9cef3a035d9021d21b24dd,Firefox 90.0,reminder,2,SS1,30,Screen 1,response_keyboard,248,3,1,1,0,test_trial,SS1,pred,grocery store.png,3,3
19/07/2021 19:28:38,19/07/2021 15:28:38,56975,3,4297881,5e9cef3a035d9021d21b24dd,Firefox 90.0,reminder,2,SS1,31,Screen 1,response_keyboard,103,4,1,1,0,test_trial,SS1,pred,grocery store.png,4,4
19/07/2021 19:28:38,19/07/2021 15:28:39,56975,3,4297881,5e9cef3a035d9021d21b24dd,Firefox 90.0,reminder,2,SS1,32,Screen 1,response_keyboard,399,2,1,1,0,test_trial,SS1,pred,grocery store.png,5,2
19/07/2021 19:28:39,19/07/2021 15:28:39,56975,3,4297881,5e9cef3a035d9021d21b24dd,Firefox 90.0,reminder,2,SS1,33,Screen 1,response_keyboard,201,3,1,1,0,test_trial,SS1,pred,grocery store.png,6,3
19/07/2021 19:30:06,19/07/2021 15:28:47,56975,3,4297816,60cf382898b50ef89e5efab3,Chrome 91.0.4472.164,reminder,2,SS8,20,Screen 1,response_keyboard,725.6999999880791,3,1,1,0,test_trial,SS8,pred,pet store.png,1,3
19/07/2021 19:30:07,19/07/2021 15:28:48,56975,3,4297816,60cf382898b50ef89e5efab3,Chrome 91.0.4472.164,reminder,2,SS8,21,Screen 1,response_keyboard,222.89999997615814,2,1,1,0,test_trial,SS8,pred,pet store.png,2,2
19/07/2021 19:30:07,19/07/2021 15:28:49,56975,3,4297816,60cf382898b50ef89e5efab3,Chrome 91.0.4472.164,reminder,2,SS8,22,Screen 1,response_keyboard,336.39999997615814,4,1,1,0,test_trial,SS8,pred,pet store.png,3,4
19/07/2021 19:30:08,19/07/2021 15:28:50,56975,3,4297816,60cf382898b50ef89e5efab3,Chrome 91.0.4472.164,reminder,2,SS8,23,Screen 1,response_keyboard,353.30000001192093,2,1,1,0,test_trial,SS8,pred,pet store.png,4,2
19/07/2021 19:30:09,19/07/2021 15:28:50,56975,3,4297816,60cf382898b50ef89e5efab3,Chrome 91.0.4472.164,reminder,2,SS8,24,Screen 1,response_keyboard,229.5,1,1,1,0,test_trial,SS8,pred,pet store.png,5,1
19/07/2021 19:30:10,19/07/2021 15:28:51,56975,3,4297816,60cf382898b50ef89e5efab3,Chrome 91.0.4472.164,reminder,2,SS8,25,Screen 1,response_keyboard,211.39999997615814,4,1,1,0,test_trial,SS8,pred,pet store.png,6,4
19/07/2021 19:30:16,19/07/2021 15:28:57,56975,3,4297816,60cf382898b50ef89e5efab3,Chrome 91.0.4472.164,reminder,2,SS8,28,Screen 1,response_keyboard,1179.3999999761581,3,1,1,0,test_trial,SS8,pred,pet store.png,1,3
19/07/2021 19:30:16,19/07/2021 15:28:58,56975,3,4297816,60cf382898b50ef89e5efab3,Chrome 91.0.4472.164,reminder,2,SS8,29,Screen 1,response_keyboard,143.80000001192093,2,1,1,0,test_trial,SS8,pred,pet store.png,2,2
19/07/2021 19:30:18,19/07/2021 15:28:59,56975,3,4297816,60cf382898b50ef89e5efab3,Chrome 91.0.4472.164,reminder,2,SS8,30,Screen 1,response_keyboard,1237,4,1,1,0,test_trial,SS8,pred,pet store.png,3,4
19/07/2021 19:30:19,19/07/2021 15:29:00,56975,3,4297816,60cf382898b50ef89e5efab3,Chrome 91.0.4472.164,reminder,2,SS8,31,Screen 1,response_keyboard,193,2,1,1,0,test_trial,SS8,pred,pet store.png,4,2
19/07/2021 19:30:21,19/07/2021 15:29:02,56975,3,4297816,60cf382898b50ef89e5efab3,Chrome 91.0.4472.164,reminder,2,SS8,32,Screen 1,response_keyboard,1227.9000000357628,1,1,1,0,test_trial,SS8,pred,pet store.png,5,1
19/07/2021 19:30:22,19/07/2021 15:29:03,56975,3,4297816,60cf382898b50ef89e5efab3,Chrome 91.0.4472.164,reminder,2,SS8,33,Screen 1,response_keyboard,445.80000001192093,4,1,1,0,test_trial,SS8,pred,pet store.png,6,4
19/07/2021 19:35:47,19/07/2021 14:35:47,56975,3,4297892,5ef10fcd68a53e4a87ff6e01,Chrome 91.0.4472.124,reminder,2,SS5,20,Screen 1,response_keyboard,469.5,1,1,1,0,test_trial,SS5,pred,grocery store.png,1,1
19/07/2021 19:35:48,19/07/2021 14:35:47,56975,3,4297892,5ef10fcd68a53e4a87ff6e01,Chrome 91.0.4472.124,reminder,2,SS5,21,Screen 1,response_keyboard,229,4,1,1,0,test_trial,SS5,pred,grocery store.png,2,4
19/07/2021 19:35:49,19/07/2021 14:35:48,56975,3,4297892,5ef10fcd68a53e4a87ff6e01,Chrome 91.0.4472.124,reminder,2,SS5,22,Screen 1,response_keyboard,159.5,3,1,1,0,test_trial,SS5,pred,grocery store.png,3,3
19/07/2021 19:35:50,19/07/2021 14:35:49,56975,3,4297892,5ef10fcd68a53e4a87ff6e01,Chrome 91.0.4472.124,reminder,2,SS5,23,Screen 1,response_keyboard,61.39999997615814,4,1,1,0,test_trial,SS5,pred,grocery store.png,4,4
19/07/2021 19:35:50,19/07/2021 14:35:49,56975,3,4297892,5ef10fcd68a53e4a87ff6e01,Chrome 91.0.4472.124,reminder,2,SS5,24,Screen 1,response_keyboard,74,2,1,1,0,test_trial,SS5,pred,grocery store.png,5,2
19/07/2021 19:35:51,19/07/2021 14:35:50,56975,3,4297892,5ef10fcd68a53e4a87ff6e01,Chrome 91.0.4472.124,reminder,2,SS5,25,Screen 1,response_keyboard,546.8999999761581,3,1,1,0,test_trial,SS5,pred,grocery store.png,6,3
19/07/2021 19:35:57,19/07/2021 14:35:56,56975,3,4297892,5ef10fcd68a53e4a87ff6e01,Chrome 91.0.4472.124,reminder,2,SS5,28,Screen 1,response_keyboard,718.2000000476837,1,1,1,0,test_trial,SS5,pred,grocery store.png,1,1
19/07/2021 19:35:57,19/07/2021 14:35:57,56975,3,4297892,5ef10fcd68a53e4a87ff6e01,Chrome 91.0.4472.124,reminder,2,SS5,29,Screen 1,response_keyboard,242.69999998807907,4,1,1,0,test_trial,SS5,pred,grocery store.png,2,4
19/07/2021 19:35:58,19/07/2021 14:35:57,56975,3,4297892,5ef10fcd68a53e4a87ff6e01,Chrome 91.0.4472.124,reminder,2,SS5,30,Screen 1,response_keyboard,298,3,1,1,0,test_trial,SS5,pred,grocery store.png,3,3
19/07/2021 19:35:59,19/07/2021 14:35:58,56975,3,4297892,5ef10fcd68a53e4a87ff6e01,Chrome 91.0.4472.124,reminder,2,SS5,31,Screen 1,response_keyboard,250.10000002384186,4,1,1,0,test_trial,SS5,pred,grocery store.png,4,4
19/07/2021 19:36:00,19/07/2021 14:35:59,56975,3,4297892,5ef10fcd68a53e4a87ff6e01,Chrome 91.0.4472.124,reminder,2,SS5,32,Screen 1,response_keyboard,202.80000001192093,2,1,1,0,test_trial,SS5,pred,grocery store.png,5,2
19/07/2021 19:36:00,19/07/2021 14:35:59,56975,3,4297892,5ef10fcd68a53e4a87ff6e01,Chrome 91.0.4472.124,reminder,2,SS5,33,Screen 1,response_keyboard,108.09999996423721,3,1,1,0,test_trial,SS5,pred,grocery store.png,6,3
19/07/2021 19:43:46,19/07/2021 15:43:46,56975,3,4297922,5c3272172f0f3500010284c0,Chrome 87.0.4280.88,reminder,2,SS1,20,Screen 1,response_keyboard,2486.095000000205,1,1,1,0,test_trial,SS1,pred,grocery store.png,1,1
19/07/2021 19:43:47,19/07/2021 15:43:47,56975,3,4297922,5c3272172f0f3500010284c0,Chrome 87.0.4280.88,reminder,2,SS1,21,Screen 1,response_keyboard,688.8850000104867,4,1,1,0,test_trial,SS1,pred,grocery store.png,2,4
19/07/2021 19:43:48,19/07/2021 15:43:48,56975,3,4297922,5c3272172f0f3500010284c0,Chrome 87.0.4280.88,reminder,2,SS1,22,Screen 1,response_keyboard,886.0100000165403,3,1,1,0,test_trial,SS1,pred,grocery store.png,3,3
19/07/2021 19:43:50,19/07/2021 15:43:50,56975,3,4297922,5c3272172f0f3500010284c0,Chrome 87.0.4280.88,reminder,2,SS1,23,Screen 1,response_keyboard,658.434999990277,4,1,1,0,test_trial,SS1,pred,grocery store.png,4,4
19/07/2021 19:43:51,19/07/2021 15:43:50,56975,3,4297922,5c3272172f0f3500010284c0,Chrome 87.0.4280.88,reminder,2,SS1,24,Screen 1,response_keyboard,344.5750000537373,2,1,1,0,test_trial,SS1,pred,grocery store.png,5,2
19/07/2021 19:43:51,19/07/2021 15:43:51,56975,3,4297922,5c3272172f0f3500010284c0,Chrome 87.0.4280.88,reminder,2,SS1,25,Screen 1,response_keyboard,35.939999972470105,3,1,1,0,test_trial,SS1,pred,grocery store.png,6,3
19/07/2021 19:43:56,19/07/2021 15:43:56,56975,3,4297922,5c3272172f0f3500010284c0,Chrome 87.0.4280.88,reminder,2,SS1,28,Screen 1,response_keyboard,627.3950000177138,1,1,1,0,test_trial,SS1,pred,grocery store.png,1,1
19/07/2021 19:43:57,19/07/2021 15:43:57,56975,3,4297922,5c3272172f0f3500010284c0,Chrome 87.0.4280.88,reminder,2,SS1,29,Screen 1,response_keyboard,303.7100000074133,4,1,1,0,test_trial,SS1,pred,grocery store.png,2,4
19/07/2021 19:43:58,19/07/2021 15:43:58,56975,3,4297922,5c3272172f0f3500010284c0,Chrome 87.0.4280.88,reminder,2,SS1,30,Screen 1,response_keyboard,262.2550000087358,3,1,1,0,test_trial,SS1,pred,grocery store.png,3,3
19/07/2021 19:43:59,19/07/2021 15:43:59,56975,3,4297922,5c3272172f0f3500010284c0,Chrome 87.0.4280.88,reminder,2,SS1,31,Screen 1,response_keyboard,197.14000000385568,4,1,1,0,test_trial,SS1,pred,grocery store.png,4,4
19/07/2021 19:43:59,19/07/2021 15:43:59,56975,3,4297922,5c3272172f0f3500010284c0,Chrome 87.0.4280.88,reminder,2,SS1,32,Screen 1,response_keyboard,34.50499998871237,2,1,1,0,test_trial,SS1,pred,grocery store.png,5,2
19/07/2021 19:44:01,19/07/2021 15:44:01,56975,3,4297922,5c3272172f0f3500010284c0,Chrome 87.0.4280.88,reminder,2,SS1,33,Screen 1,response_keyboard,843.894999998156,3,1,1,0,test_trial,SS1,pred,grocery store.png,6,3
19/07/2021 19:47:57,19/07/2021 14:47:57,56975,3,4297959,5f57968257f42924fb0f9a15,Firefox 89.0,reminder,2,SS6,20,Screen 1,response_keyboard,292,1,1,1,0,test_trial,SS6,pred,pet store.png,1,1
19/07/2021 19:47:58,19/07/2021 14:47:57,56975,3,4297959,5f57968257f42924fb0f9a15,Firefox 89.0,reminder,2,SS6,21,Screen 1,response_keyboard,176,4,1,1,0,test_trial,SS6,pred,pet store.png,2,4
19/07/2021 19:47:58,19/07/2021 14:47:58,56975,3,4297959,5f57968257f42924fb0f9a15,Firefox 89.0,reminder,2,SS6,22,Screen 1,response_keyboard,144,3,1,1,0,test_trial,SS6,pred,pet store.png,3,3
19/07/2021 19:47:59,19/07/2021 14:47:59,56975,3,4297959,5f57968257f42924fb0f9a15,Firefox 89.0,reminder,2,SS6,23,Screen 1,response_keyboard,339,4,1,1,0,test_trial,SS6,pred,pet store.png,4,4
19/07/2021 19:48:00,19/07/2021 14:47:59,56975,3,4297959,5f57968257f42924fb0f9a15,Firefox 89.0,reminder,2,SS6,24,Screen 1,response_keyboard,208,2,1,1,0,test_trial,SS6,pred,pet store.png,5,2
19/07/2021 19:48:01,19/07/2021 14:48:00,56975,3,4297959,5f57968257f42924fb0f9a15,Firefox 89.0,reminder,2,SS6,25,Screen 1,response_keyboard,260,3,1,1,0,test_trial,SS6,pred,pet store.png,6,3
19/07/2021 19:48:06,19/07/2021 14:48:05,56975,3,4297959,5f57968257f42924fb0f9a15,Firefox 89.0,reminder,2,SS6,28,Screen 1,response_keyboard,324,1,1,1,0,test_trial,SS6,pred,pet store.png,1,1
19/07/2021 19:48:06,19/07/2021 14:48:06,56975,3,4297959,5f57968257f42924fb0f9a15,Firefox 89.0,reminder,2,SS6,29,Screen 1,response_keyboard,291,4,1,1,0,test_trial,SS6,pred,pet store.png,2,4
19/07/2021 19:48:07,19/07/2021 14:48:07,56975,3,4297959,5f57968257f42924fb0f9a15,Firefox 89.0,reminder,2,SS6,30,Screen 1,response_keyboard,308,3,1,1,0,test_trial,SS6,pred,pet store.png,3,3
19/07/2021 19:48:08,19/07/2021 14:48:08,56975,3,4297959,5f57968257f42924fb0f9a15,Firefox 89.0,reminder,2,SS6,31,Screen 1,response_keyboard,261,4,1,1,0,test_trial,SS6,pred,pet store.png,4,4
19/07/2021 19:48:09,19/07/2021 14:48:08,56975,3,4297959,5f57968257f42924fb0f9a15,Firefox 89.0,reminder,2,SS6,32,Screen 1,response_keyboard,215,2,1,1,0,test_trial,SS6,pred,pet store.png,5,2
19/07/2021 19:48:10,19/07/2021 14:48:09,56975,3,4297959,5f57968257f42924fb0f9a15,Firefox 89.0,reminder,2,SS6,33,Screen 1,response_keyboard,259,3,1,1,0,test_trial,SS6,pred,pet store.png,6,3
19/07/2021 20:21:23,19/07/2021 13:21:23,56975,3,4298202,5ab5a51be1546900019b59ff,Chrome 91.0.4472.124,reminder,2,SS3,20,Screen 1,response_keyboard,656.6000000238419,3,1,1,0,test_trial,SS3,pred,grocery store.png,1,3
19/07/2021 20:21:24,19/07/2021 13:21:24,56975,3,4298202,5ab5a51be1546900019b59ff,Chrome 91.0.4472.124,reminder,2,SS3,21,Screen 1,response_keyboard,240.60000002384186,2,1,1,0,test_trial,SS3,pred,grocery store.png,2,2
19/07/2021 20:21:24,19/07/2021 13:21:25,56975,3,4298202,5ab5a51be1546900019b59ff,Chrome 91.0.4472.124,reminder,2,SS3,22,Screen 1,response_keyboard,266.5,4,1,1,0,test_trial,SS3,pred,grocery store.png,3,4
19/07/2021 20:21:25,19/07/2021 13:21:25,56975,3,4298202,5ab5a51be1546900019b59ff,Chrome 91.0.4472.124,reminder,2,SS3,23,Screen 1,response_keyboard,180.60000002384186,2,1,1,0,test_trial,SS3,pred,grocery store.png,4,2
19/07/2021 20:21:26,19/07/2021 13:21:26,56975,3,4298202,5ab5a51be1546900019b59ff,Chrome 91.0.4472.124,reminder,2,SS3,24,Screen 1,response_keyboard,138,1,1,1,0,test_trial,SS3,pred,grocery store.png,5,1
19/07/2021 20:21:26,19/07/2021 13:21:27,56975,3,4298202,5ab5a51be1546900019b59ff,Chrome 91.0.4472.124,reminder,2,SS3,25,Screen 1,response_keyboard,103.79999995231628,4,1,1,0,test_trial,SS3,pred,grocery store.png,6,4
19/07/2021 20:21:32,19/07/2021 13:21:32,56975,3,4298202,5ab5a51be1546900019b59ff,Chrome 91.0.4472.124,reminder,2,SS3,28,Screen 1,response_keyboard,436.30000001192093,3,1,1,0,test_trial,SS3,pred,grocery store.png,1,3
19/07/2021 20:21:32,19/07/2021 13:21:33,56975,3,4298202,5ab5a51be1546900019b59ff,Chrome 91.0.4472.124,reminder,2,SS3,29,Screen 1,response_keyboard,177.80000001192093,2,1,1,0,test_trial,SS3,pred,grocery store.png,2,2
19/07/2021 20:21:33,19/07/2021 13:21:33,56975,3,4298202,5ab5a51be1546900019b59ff,Chrome 91.0.4472.124,reminder,2,SS3,30,Screen 1,response_keyboard,130.80000001192093,4,1,1,0,test_trial,SS3,pred,grocery store.png,3,4
19/07/2021 20:21:34,19/07/2021 13:21:34,56975,3,4298202,5ab5a51be1546900019b59ff,Chrome 91.0.4472.124,reminder,2,SS3,31,Screen 1,response_keyboard,55.60000002384186,2,1,1,0,test_trial,SS3,pred,grocery store.png,4,2
19/07/2021 20:21:34,19/07/2021 13:21:35,56975,3,4298202,5ab5a51be1546900019b59ff,Chrome 91.0.4472.124,reminder,2,SS3,32,Screen 1,response_keyboard,79.60000002384186,1,1,1,0,test_trial,SS3,pred,grocery store.png,5,1
19/07/2021 20:21:35,19/07/2021 13:21:35,56975,3,4298202,5ab5a51be1546900019b59ff,Chrome 91.0.4472.124,reminder,2,SS3,33,Screen 1,response_keyboard,20.30000001192093,4,1,1,0,test_trial,SS3,pred,grocery store.png,6,4
19/07/2021 20:39:42,19/07/2021 13:39:42,56975,3,4298250,5caa7f8c0d95570013d82f2f,Chrome 91.0.4472.114,reminder,2,SS7,20,Screen 1,response_keyboard,2342.099999997765,3,1,1,0,test_trial,SS7,pred,grocery store.png,1,3
19/07/2021 20:39:43,19/07/2021 13:39:43,56975,3,4298250,5caa7f8c0d95570013d82f2f,Chrome 91.0.4472.114,reminder,2,SS7,21,Screen 1,response_keyboard,642,2,1,1,0,test_trial,SS7,pred,grocery store.png,2,2
19/07/2021 20:39:45,19/07/2021 13:39:45,56975,3,4298250,5caa7f8c0d95570013d82f2f,Chrome 91.0.4472.114,reminder,2,SS7,22,Screen 1,response_keyboard,1486.699999999255,4,1,1,0,test_trial,SS7,pred,grocery store.png,3,4
19/07/2021 20:39:46,19/07/2021 13:39:46,56975,3,4298250,5caa7f8c0d95570013d82f2f,Chrome 91.0.4472.114,reminder,2,SS7,23,Screen 1,response_keyboard,711.2999999970198,2,1,1,0,test_trial,SS7,pred,grocery store.png,4,2
19/07/2021 20:39:48,19/07/2021 13:39:48,56975,3,4298250,5caa7f8c0d95570013d82f2f,Chrome 91.0.4472.114,reminder,2,SS7,24,Screen 1,response_keyboard,788,1,1,1,0,test_trial,SS7,pred,grocery store.png,5,1
19/07/2021 20:39:49,19/07/2021 13:39:49,56975,3,4298250,5caa7f8c0d95570013d82f2f,Chrome 91.0.4472.114,reminder,2,SS7,25,Screen 1,response_keyboard,596.3000000007451,4,1,1,0,test_trial,SS7,pred,grocery store.png,6,4
19/07/2021 20:39:55,19/07/2021 13:39:55,56975,3,4298250,5caa7f8c0d95570013d82f2f,Chrome 91.0.4472.114,reminder,2,SS7,28,Screen 1,response_keyboard,1167.699999999255,3,1,1,0,test_trial,SS7,pred,grocery store.png,1,3
19/07/2021 20:39:56,19/07/2021 13:39:56,56975,3,4298250,5caa7f8c0d95570013d82f2f,Chrome 91.0.4472.114,reminder,2,SS7,29,Screen 1,response_keyboard,564.0999999977648,2,1,1,0,test_trial,SS7,pred,grocery store.png,2,2
19/07/2021 20:39:57,19/07/2021 13:39:57,56975,3,4298250,5caa7f8c0d95570013d82f2f,Chrome 91.0.4472.114,reminder,2,SS7,30,Screen 1,response_keyboard,462.5,4,1,1,0,test_trial,SS7,pred,grocery store.png,3,4
19/07/2021 20:39:58,19/07/2021 13:39:58,56975,3,4298250,5caa7f8c0d95570013d82f2f,Chrome 91.0.4472.114,reminder,2,SS7,31,Screen 1,response_keyboard,392.0999999977648,2,1,1,0,test_trial,SS7,pred,grocery store.png,4,2
19/07/2021 20:39:59,19/07/2021 13:39:59,56975,3,4298250,5caa7f8c0d95570013d82f2f,Chrome 91.0.4472.114,reminder,2,SS7,32,Screen 1,response_keyboard,447.5,1,1,1,0,test_trial,SS7,pred,grocery store.png,5,1
19/07/2021 20:40:00,19/07/2021 13:40:00,56975,3,4298250,5caa7f8c0d95570013d82f2f,Chrome 91.0.4472.114,reminder,2,SS7,33,Screen 1,response_keyboard,357.69999999925494,4,1,1,0,test_trial,SS7,pred,grocery store.png,6,4
19/07/2021 20:44:23,19/07/2021 15:44:03,56975,3,4298317,5f4fe42aa8de8e1136e85064,Chrome 91.0.4472.124,reminder,2,SS5,20,Screen 1,response_keyboard,929.9000000022352,1,1,1,0,test_trial,SS5,pred,grocery store.png,1,1
19/07/2021 20:44:24,19/07/2021 15:44:04,56975,3,4298317,5f4fe42aa8de8e1136e85064,Chrome 91.0.4472.124,reminder,2,SS5,21,Screen 1,response_keyboard,375,4,1,1,0,test_trial,SS5,pred,grocery store.png,2,4
19/07/2021 20:44:24,19/07/2021 15:44:05,56975,3,4298317,5f4fe42aa8de8e1136e85064,Chrome 91.0.4472.124,reminder,2,SS5,22,Screen 1,response_keyboard,298.5999999977648,3,1,1,0,test_trial,SS5,pred,grocery store.png,3,3
19/07/2021 20:44:25,19/07/2021 15:44:06,56975,3,4298317,5f4fe42aa8de8e1136e85064,Chrome 91.0.4472.124,reminder,2,SS5,23,Screen 1,response_keyboard,311,4,1,1,0,test_trial,SS5,pred,grocery store.png,4,4
19/07/2021 20:44:26,19/07/2021 15:44:07,56975,3,4298317,5f4fe42aa8de8e1136e85064,Chrome 91.0.4472.124,reminder,2,SS5,24,Screen 1,response_keyboard,284.80000000074506,2,1,1,0,test_trial,SS5,pred,grocery store.png,5,2
19/07/2021 20:44:27,19/07/2021 15:44:07,56975,3,4298317,5f4fe42aa8de8e1136e85064,Chrome 91.0.4472.124,reminder,2,SS5,25,Screen 1,response_keyboard,248.69999999925494,3,1,1,0,test_trial,SS5,pred,grocery store.png,6,3
19/07/2021 20:44:32,19/07/2021 15:44:13,56975,3,4298317,5f4fe42aa8de8e1136e85064,Chrome 91.0.4472.124,reminder,2,SS5,28,Screen 1,response_keyboard,471.3999999985099,1,1,1,0,test_trial,SS5,pred,grocery store.png,1,1
19/07/2021 20:44:33,19/07/2021 15:44:13,56975,3,4298317,5f4fe42aa8de8e1136e85064,Chrome 91.0.4472.124,reminder,2,SS5,29,Screen 1,response_keyboard,225.39999999850988,4,1,1,0,test_trial,SS5,pred,grocery store.png,2,4
19/07/2021 20:44:34,19/07/2021 15:44:14,56975,3,4298317,5f4fe42aa8de8e1136e85064,Chrome 91.0.4472.124,reminder,2,SS5,30,Screen 1,response_keyboard,291,3,1,1,0,test_trial,SS5,pred,grocery store.png,3,3
19/07/2021 20:44:34,19/07/2021 15:44:15,56975,3,4298317,5f4fe42aa8de8e1136e85064,Chrome 91.0.4472.124,reminder,2,SS5,31,Screen 1,response_keyboard,215.10000000149012,4,1,1,0,test_trial,SS5,pred,grocery store.png,4,4
19/07/2021 20:44:35,19/07/2021 15:44:16,56975,3,4298317,5f4fe42aa8de8e1136e85064,Chrome 91.0.4472.124,reminder,2,SS5,32,Screen 1,response_keyboard,253.90000000223517,2,1,1,0,test_trial,SS5,pred,grocery store.png,5,2
19/07/2021 20:44:36,19/07/2021 15:44:16,56975,3,4298317,5f4fe42aa8de8e1136e85064,Chrome 91.0.4472.124,reminder,2,SS5,33,Screen 1,response_keyboard,231.5,3,1,1,0,test_trial,SS5,pred,grocery store.png,6,3
19/07/2021 20:58:34,19/07/2021 16:58:34,56975,3,4298278,60dcb9460db999d29bfd267d,Chrome 91.0.4472.124,reminder,2,SS4,20,Screen 1,response_keyboard,1853,3,1,1,0,test_trial,SS4,pred,pet store.png,1,3
19/07/2021 20:58:35,19/07/2021 16:58:35,56975,3,4298278,60dcb9460db999d29bfd267d,Chrome 91.0.4472.124,reminder,2,SS4,21,Screen 1,response_keyboard,367.80000000074506,2,1,1,0,test_trial,SS4,pred,pet store.png,2,2
19/07/2021 20:58:37,19/07/2021 16:58:36,56975,3,4298278,60dcb9460db999d29bfd267d,Chrome 91.0.4472.124,reminder,2,SS4,22,Screen 1,response_keyboard,1221.6000000014901,4,1,1,0,test_trial,SS4,pred,pet store.png,3,4
19/07/2021 20:58:41,19/07/2021 16:58:41,56975,3,4298278,60dcb9460db999d29bfd267d,Chrome 91.0.4472.124,reminder,2,SS4,23,Screen 1,response_keyboard,3853.300000000745,1,1,0,0,test_trial,SS4,pred,pet store.png,4,2
19/07/2021 20:58:44,19/07/2021 16:58:43,56975,3,4298278,60dcb9460db999d29bfd267d,Chrome 91.0.4472.124,reminder,2,SS4,24,Screen 1,response_keyboard,2076.5,1,1,1,0,test_trial,SS4,pred,pet store.png,5,1
19/07/2021 20:58:45,19/07/2021 16:58:44,56975,3,4298278,60dcb9460db999d29bfd267d,Chrome 91.0.4472.124,reminder,2,SS4,25,Screen 1,response_keyboard,282.9000000022352,4,1,1,0,test_trial,SS4,pred,pet store.png,6,4
19/07/2021 20:58:50,19/07/2021 16:58:50,56975,3,4298278,60dcb9460db999d29bfd267d,Chrome 91.0.4472.124,reminder,2,SS4,28,Screen 1,response_keyboard,1086.699999999255,3,1,1,0,test_trial,SS4,pred,pet store.png,1,3
19/07/2021 20:58:51,19/07/2021 16:58:50,56975,3,4298278,60dcb9460db999d29bfd267d,Chrome 91.0.4472.124,reminder,2,SS4,29,Screen 1,response_keyboard,48.80000000074506,2,1,1,0,test_trial,SS4,pred,pet store.png,2,2
19/07/2021 20:58:52,19/07/2021 16:58:51,56975,3,4298278,60dcb9460db999d29bfd267d,Chrome 91.0.4472.124,reminder,2,SS4,30,Screen 1,response_keyboard,238.30000000074506,4,1,1,0,test_trial,SS4,pred,pet store.png,3,4
19/07/2021 20:58:54,19/07/2021 16:58:53,56975,3,4298278,60dcb9460db999d29bfd267d,Chrome 91.0.4472.124,reminder,2,SS4,31,Screen 1,response_keyboard,1155.5,2,1,1,0,test_trial,SS4,pred,pet store.png,4,2
19/07/2021 20:58:55,19/07/2021 16:58:54,56975,3,4298278,60dcb9460db999d29bfd267d,Chrome 91.0.4472.124,reminder,2,SS4,32,Screen 1,response_keyboard,629.8000000007451,4,1,0,0,test_trial,SS4,pred,pet store.png,5,1
19/07/2021 20:58:56,19/07/2021 16:58:55,56975,3,4298278,60dcb9460db999d29bfd267d,Chrome 91.0.4472.124,reminder,2,SS4,33,Screen 1,response_keyboard,358,4,1,1,0,test_trial,SS4,pred,pet store.png,6,4
19/07/2021 21:41:53,19/07/2021 14:41:53,56975,3,4298516,60b471c516aa6d9ce35bbb4d,Chrome 91.0.4472.164,reminder,2,SS8,20,Screen 1,response_keyboard,396.19999998807907,3,1,1,0,test_trial,SS8,pred,pet store.png,1,3
19/07/2021 21:41:53,19/07/2021 14:41:54,56975,3,4298516,60b471c516aa6d9ce35bbb4d,Chrome 91.0.4472.164,reminder,2,SS8,21,Screen 1,response_keyboard,38.69999998807907,2,1,1,0,test_trial,SS8,pred,pet store.png,2,2
19/07/2021 21:41:54,19/07/2021 14:41:54,56975,3,4298516,60b471c516aa6d9ce35bbb4d,Chrome 91.0.4472.164,reminder,2,SS8,22,Screen 1,response_keyboard,32.69999998807907,4,1,1,0,test_trial,SS8,pred,pet store.png,3,4
19/07/2021 21:41:54,19/07/2021 14:41:55,56975,3,4298516,60b471c516aa6d9ce35bbb4d,Chrome 91.0.4472.164,reminder,2,SS8,23,Screen 1,response_keyboard,65.20000004768372,2,1,1,0,test_trial,SS8,pred,pet store.png,4,2
19/07/2021 21:41:55,19/07/2021 14:41:55,56975,3,4298516,60b471c516aa6d9ce35bbb4d,Chrome 91.0.4472.164,reminder,2,SS8,24,Screen 1,response_keyboard,72.09999996423721,1,1,1,0,test_trial,SS8,pred,pet store.png,5,1
19/07/2021 21:41:56,19/07/2021 14:41:56,56975,3,4298516,60b471c516aa6d9ce35bbb4d,Chrome 91.0.4472.164,reminder,2,SS8,25,Screen 1,response_keyboard,22.299999952316284,4,1,1,0,test_trial,SS8,pred,pet store.png,6,4
19/07/2021 21:42:01,19/07/2021 14:42:01,56975,3,4298516,60b471c516aa6d9ce35bbb4d,Chrome 91.0.4472.164,reminder,2,SS8,28,Screen 1,response_keyboard,374.30000001192093,3,1,1,0,test_trial,SS8,pred,pet store.png,1,3
19/07/2021 21:42:01,19/07/2021 14:42:02,56975,3,4298516,60b471c516aa6d9ce35bbb4d,Chrome 91.0.4472.164,reminder,2,SS8,29,Screen 1,response_keyboard,96.19999998807907,2,1,1,0,test_trial,SS8,pred,pet store.png,2,2
19/07/2021 21:42:02,19/07/2021 14:42:02,56975,3,4298516,60b471c516aa6d9ce35bbb4d,Chrome 91.0.4472.164,reminder,2,SS8,30,Screen 1,response_keyboard,75.19999998807907,4,1,1,0,test_trial,SS8,pred,pet store.png,3,4
19/07/2021 21:42:02,19/07/2021 14:42:03,56975,3,4298516,60b471c516aa6d9ce35bbb4d,Chrome 91.0.4472.164,reminder,2,SS8,31,Screen 1,response_keyboard,26.19999998807907,2,1,1,0,test_trial,SS8,pred,pet store.png,4,2
19/07/2021 21:42:03,19/07/2021 14:42:03,56975,3,4298516,60b471c516aa6d9ce35bbb4d,Chrome 91.0.4472.164,reminder,2,SS8,32,Screen 1,response_keyboard,42,1,1,1,0,test_trial,SS8,pred,pet store.png,5,1
19/07/2021 21:42:04,19/07/2021 14:42:04,56975,3,4298516,60b471c516aa6d9ce35bbb4d,Chrome 91.0.4472.164,reminder,2,SS8,33,Screen 1,response_keyboard,436.19999998807907,4,1,1,0,test_trial,SS8,pred,pet store.png,6,4
20/07/2021 15:46:35,20/07/2021 11:46:37,56975,3,4304287,60e65583fee25b800c0b6462,Chrome 87.0.4280.141,reminder,2,SS8,20,Screen 1,response_keyboard,1368.9500000327826,3,1,1,0,test_trial,SS8,pred,pet store.png,1,3
20/07/2021 15:46:37,20/07/2021 11:46:39,56975,3,4304287,60e65583fee25b800c0b6462,Chrome 87.0.4280.141,reminder,2,SS8,21,Screen 1,response_keyboard,489.6849989891052,2,1,1,0,test_trial,SS8,pred,pet store.png,2,2
20/07/2021 15:46:38,20/07/2021 11:46:40,56975,3,4304287,60e65583fee25b800c0b6462,Chrome 87.0.4280.141,reminder,2,SS8,22,Screen 1,response_keyboard,532.6100010424852,4,1,1,0,test_trial,SS8,pred,pet store.png,3,4
20/07/2021 15:46:39,20/07/2021 11:46:41,56975,3,4304287,60e65583fee25b800c0b6462,Chrome 87.0.4280.141,reminder,2,SS8,23,Screen 1,response_keyboard,425.7600009441376,2,1,1,0,test_trial,SS8,pred,pet store.png,4,2
20/07/2021 15:46:40,20/07/2021 11:46:42,56975,3,4304287,60e65583fee25b800c0b6462,Chrome 87.0.4280.141,reminder,2,SS8,24,Screen 1,response_keyboard,376.2350007891655,1,1,1,0,test_trial,SS8,pred,pet store.png,5,1
20/07/2021 15:46:40,20/07/2021 11:46:42,56975,3,4304287,60e65583fee25b800c0b6462,Chrome 87.0.4280.141,reminder,2,SS8,25,Screen 1,response_keyboard,245.77500112354755,4,1,1,0,test_trial,SS8,pred,pet store.png,6,4
20/07/2021 15:46:47,20/07/2021 11:46:49,56975,3,4304287,60e65583fee25b800c0b6462,Chrome 87.0.4280.141,reminder,2,SS8,28,Screen 1,response_keyboard,2147.3700013011694,3,1,1,0,test_trial,SS8,pred,pet store.png,1,3
20/07/2021 15:46:48,20/07/2021 11:46:50,56975,3,4304287,60e65583fee25b800c0b6462,Chrome 87.0.4280.141,reminder,2,SS8,29,Screen 1,response_keyboard,325.7749993354082,2,1,1,0,test_trial,SS8,pred,pet store.png,2,2
20/07/2021 15:46:49,20/07/2021 11:46:51,56975,3,4304287,60e65583fee25b800c0b6462,Chrome 87.0.4280.141,reminder,2,SS8,30,Screen 1,response_keyboard,299.4999997317791,4,1,1,0,test_trial,SS8,pred,pet store.png,3,4
20/07/2021 15:46:50,20/07/2021 11:46:52,56975,3,4304287,60e65583fee25b800c0b6462,Chrome 87.0.4280.141,reminder,2,SS8,31,Screen 1,response_keyboard,508.49500112235546,2,1,1,0,test_trial,SS8,pred,pet store.png,4,2
20/07/2021 15:46:51,20/07/2021 11:46:53,56975,3,4304287,60e65583fee25b800c0b6462,Chrome 87.0.4280.141,reminder,2,SS8,32,Screen 1,response_keyboard,243.1199997663498,1,1,1,0,test_trial,SS8,pred,pet store.png,5,1
20/07/2021 15:46:52,20/07/2021 11:46:54,56975,3,4304287,60e65583fee25b800c0b6462,Chrome 87.0.4280.141,reminder,2,SS8,33,Screen 1,response_keyboard,253.23999859392643,4,1,1,0,test_trial,SS8,pred,pet store.png,6,4
20/07/2021 15:48:16,20/07/2021 11:48:16,56975,3,4304269,6087b1c5a725406ec84539b4,Chrome 91.0.4472.147,reminder,2,SS4,20,Screen 1,response_keyboard,2066,3,1,1,0,test_trial,SS4,pred,pet store.png,1,3
20/07/2021 15:48:19,20/07/2021 11:48:19,56975,3,4304269,6087b1c5a725406ec84539b4,Chrome 91.0.4472.147,reminder,2,SS4,21,Screen 1,response_keyboard,2070.2000000029802,2,1,1,0,test_trial,SS4,pred,pet store.png,2,2
20/07/2021 15:48:20,20/07/2021 11:48:20,56975,3,4304269,6087b1c5a725406ec84539b4,Chrome 91.0.4472.147,reminder,2,SS4,22,Screen 1,response_keyboard,260.70000000298023,3,1,0,0,test_trial,SS4,pred,pet store.png,3,4
20/07/2021 15:48:21,20/07/2021 11:48:21,56975,3,4304269,6087b1c5a725406ec84539b4,Chrome 91.0.4472.147,reminder,2,SS4,23,Screen 1,response_keyboard,957.5,3,1,0,0,test_trial,SS4,pred,pet store.png,4,2
20/07/2021 15:48:23,20/07/2021 11:48:23,56975,3,4304269,6087b1c5a725406ec84539b4,Chrome 91.0.4472.147,reminder,2,SS4,24,Screen 1,response_keyboard,781.7999999970198,4,1,0,0,test_trial,SS4,pred,pet store.png,5,1
20/07/2021 15:48:24,20/07/2021 11:48:24,56975,3,4304269,6087b1c5a725406ec84539b4,Chrome 91.0.4472.147,reminder,2,SS4,25,Screen 1,response_keyboard,136,2,1,0,0,test_trial,SS4,pred,pet store.png,6,4
20/07/2021 15:48:31,20/07/2021 11:48:31,56975,3,4304269,6087b1c5a725406ec84539b4,Chrome 91.0.4472.147,reminder,2,SS4,28,Screen 1,response_keyboard,2739.9000000059605,3,1,1,0,test_trial,SS4,pred,pet store.png,1,3
20/07/2021 15:48:33,20/07/2021 11:48:33,56975,3,4304269,6087b1c5a725406ec84539b4,Chrome 91.0.4472.147,reminder,2,SS4,29,Screen 1,response_keyboard,735.2000000029802,2,1,1,0,test_trial,SS4,pred,pet store.png,2,2
20/07/2021 15:48:34,20/07/2021 11:48:34,56975,3,4304269,6087b1c5a725406ec84539b4,Chrome 91.0.4472.147,reminder,2,SS4,30,Screen 1,response_keyboard,555.6999999880791,4,1,1,0,test_trial,SS4,pred,pet store.png,3,4
20/07/2021 15:48:35,20/07/2021 11:48:35,56975,3,4304269,6087b1c5a725406ec84539b4,Chrome 91.0.4472.147,reminder,2,SS4,31,Screen 1,response_keyboard,95.59999999403954,1,1,0,0,test_trial,SS4,pred,pet store.png,4,2
20/07/2021 15:48:36,20/07/2021 11:48:36,56975,3,4304269,6087b1c5a725406ec84539b4,Chrome 91.0.4472.147,reminder,2,SS4,32,Screen 1,response_keyboard,1164.7999999970198,1,1,1,0,test_trial,SS4,pred,pet store.png,5,1
20/07/2021 15:48:38,20/07/2021 11:48:38,56975,3,4304269,6087b1c5a725406ec84539b4,Chrome 91.0.4472.147,reminder,2,SS4,33,Screen 1,response_keyboard,1209.800000011921,4,1,1,0,test_trial,SS4,pred,pet store.png,6,4
20/07/2021 15:49:45,20/07/2021 08:49:46,56975,3,4304260,60e364349645120ba12a3d70,Chrome 91.0.4472.164,reminder,2,SS3,20,Screen 1,response_keyboard,1746.3999999761581,3,1,1,0,test_trial,SS3,pred,grocery store.png,1,3
20/07/2021 15:49:46,20/07/2021 08:49:47,56975,3,4304260,60e364349645120ba12a3d70,Chrome 91.0.4472.164,reminder,2,SS3,21,Screen 1,response_keyboard,310.80000001192093,2,1,1,0,test_trial,SS3,pred,grocery store.png,2,2
20/07/2021 15:49:47,20/07/2021 08:49:48,56975,3,4304260,60e364349645120ba12a3d70,Chrome 91.0.4472.164,reminder,2,SS3,22,Screen 1,response_keyboard,160.69999998807907,4,1,1,0,test_trial,SS3,pred,grocery store.png,3,4
20/07/2021 15:49:48,20/07/2021 08:49:49,56975,3,4304260,60e364349645120ba12a3d70,Chrome 91.0.4472.164,reminder,2,SS3,23,Screen 1,response_keyboard,116.5,2,1,1,0,test_trial,SS3,pred,grocery store.png,4,2
20/07/2021 15:49:48,20/07/2021 08:49:49,56975,3,4304260,60e364349645120ba12a3d70,Chrome 91.0.4472.164,reminder,2,SS3,24,Screen 1,response_keyboard,138,1,1,1,0,test_trial,SS3,pred,grocery store.png,5,1
20/07/2021 15:49:49,20/07/2021 08:49:50,56975,3,4304260,60e364349645120ba12a3d70,Chrome 91.0.4472.164,reminder,2,SS3,25,Screen 1,response_keyboard,101.30000001192093,4,1,1,0,test_trial,SS3,pred,grocery store.png,6,4
20/07/2021 15:49:54,20/07/2021 08:49:55,56975,3,4304260,60e364349645120ba12a3d70,Chrome 91.0.4472.164,reminder,2,SS3,28,Screen 1,response_keyboard,578.6000000238419,3,1,1,0,test_trial,SS3,pred,grocery store.png,1,3
20/07/2021 15:49:55,20/07/2021 08:49:56,56975,3,4304260,60e364349645120ba12a3d70,Chrome 91.0.4472.164,reminder,2,SS3,29,Screen 1,response_keyboard,148.4000000357628,2,1,1,0,test_trial,SS3,pred,grocery store.png,2,2
20/07/2021 15:49:56,20/07/2021 08:49:57,56975,3,4304260,60e364349645120ba12a3d70,Chrome 91.0.4472.164,reminder,2,SS3,30,Screen 1,response_keyboard,196.89999997615814,4,1,1,0,test_trial,SS3,pred,grocery store.png,3,4
20/07/2021 15:49:57,20/07/2021 08:49:58,56975,3,4304260,60e364349645120ba12a3d70,Chrome 91.0.4472.164,reminder,2,SS3,31,Screen 1,response_keyboard,192.29999995231628,2,1,1,0,test_trial,SS3,pred,grocery store.png,4,2
20/07/2021 15:49:58,20/07/2021 08:49:59,56975,3,4304260,60e364349645120ba12a3d70,Chrome 91.0.4472.164,reminder,2,SS3,32,Screen 1,response_keyboard,146.80000001192093,1,1,1,0,test_trial,SS3,pred,grocery store.png,5,1
20/07/2021 15:49:58,20/07/2021 08:49:59,56975,3,4304260,60e364349645120ba12a3d70,Chrome 91.0.4472.164,reminder,2,SS3,33,Screen 1,response_keyboard,159.0999999642372,4,1,1,0,test_trial,SS3,pred,grocery store.png,6,4
20/07/2021 15:50:35,20/07/2021 11:50:35,56975,3,4304279,5cb33d40f173240019513957,Chrome 91.0.4472.164,reminder,2,SS6,20,Screen 1,response_keyboard,539.7999999970198,1,1,1,0,test_trial,SS6,pred,pet store.png,1,1
20/07/2021 15:50:35,20/07/2021 11:50:35,56975,3,4304279,5cb33d40f173240019513957,Chrome 91.0.4472.164,reminder,2,SS6,21,Screen 1,response_keyboard,121.10000000149012,4,1,1,0,test_trial,SS6,pred,pet store.png,2,4
20/07/2021 15:50:36,20/07/2021 11:50:36,56975,3,4304279,5cb33d40f173240019513957,Chrome 91.0.4472.164,reminder,2,SS6,22,Screen 1,response_keyboard,1.5,3,1,1,0,test_trial,SS6,pred,pet store.png,3,3
20/07/2021 15:50:36,20/07/2021 11:50:36,56975,3,4304279,5cb33d40f173240019513957,Chrome 91.0.4472.164,reminder,2,SS6,23,Screen 1,response_keyboard,49.599999994039536,4,1,1,0,test_trial,SS6,pred,pet store.png,4,4
20/07/2021 15:50:37,20/07/2021 11:50:37,56975,3,4304279,5cb33d40f173240019513957,Chrome 91.0.4472.164,reminder,2,SS6,24,Screen 1,response_keyboard,27.700000002980232,2,1,1,0,test_trial,SS6,pred,pet store.png,5,2
20/07/2021 15:50:38,20/07/2021 11:50:37,56975,3,4304279,5cb33d40f173240019513957,Chrome 91.0.4472.164,reminder,2,SS6,25,Screen 1,response_keyboard,45.19999999552965,3,1,1,0,test_trial,SS6,pred,pet store.png,6,3
20/07/2021 15:50:43,20/07/2021 11:50:43,56975,3,4304279,5cb33d40f173240019513957,Chrome 91.0.4472.164,reminder,2,SS6,28,Screen 1,response_keyboard,575.5999999940395,1,1,1,0,test_trial,SS6,pred,pet store.png,1,1
20/07/2021 15:50:44,20/07/2021 11:50:43,56975,3,4304279,5cb33d40f173240019513957,Chrome 91.0.4472.164,reminder,2,SS6,29,Screen 1,response_keyboard,178.60000000149012,4,1,1,0,test_trial,SS6,pred,pet store.png,2,4
20/07/2021 15:50:44,20/07/2021 11:50:44,56975,3,4304279,5cb33d40f173240019513957,Chrome 91.0.4472.164,reminder,2,SS6,30,Screen 1,response_keyboard,47.80000000447035,3,1,1,0,test_trial,SS6,pred,pet store.png,3,3
20/07/2021 15:50:45,20/07/2021 11:50:45,56975,3,4304279,5cb33d40f173240019513957,Chrome 91.0.4472.164,reminder,2,SS6,31,Screen 1,response_keyboard,624.8999999985099,4,1,1,0,test_trial,SS6,pred,pet store.png,4,4
20/07/2021 15:50:46,20/07/2021 11:50:46,56975,3,4304279,5cb33d40f173240019513957,Chrome 91.0.4472.164,reminder,2,SS6,32,Screen 1,response_keyboard,116,2,1,1,0,test_trial,SS6,pred,pet store.png,5,2
20/07/2021 15:50:47,20/07/2021 11:50:46,56975,3,4304279,5cb33d40f173240019513957,Chrome 91.0.4472.164,reminder,2,SS6,33,Screen 1,response_keyboard,1.1000000014901161,3,1,1,0,test_trial,SS6,pred,pet store.png,6,3
20/07/2021 16:03:11,20/07/2021 12:03:11,56975,3,4304278,60eeffb407f8d0c9c876a130,Chrome 91.0.4472.124,reminder,2,SS7,20,Screen 1,response_keyboard,673.9000000003725,3,1,1,0,test_trial,SS7,pred,grocery store.png,1,3
20/07/2021 16:03:11,20/07/2021 12:03:12,56975,3,4304278,60eeffb407f8d0c9c876a130,Chrome 91.0.4472.124,reminder,2,SS7,21,Screen 1,response_keyboard,256.19999999925494,2,1,1,0,test_trial,SS7,pred,grocery store.png,2,2
20/07/2021 16:03:12,20/07/2021 12:03:13,56975,3,4304278,60eeffb407f8d0c9c876a130,Chrome 91.0.4472.124,reminder,2,SS7,22,Screen 1,response_keyboard,360.90000000037253,4,1,1,0,test_trial,SS7,pred,grocery store.png,3,4
20/07/2021 16:03:13,20/07/2021 12:03:13,56975,3,4304278,60eeffb407f8d0c9c876a130,Chrome 91.0.4472.124,reminder,2,SS7,23,Screen 1,response_keyboard,253.40000000037253,2,1,1,0,test_trial,SS7,pred,grocery store.png,4,2
20/07/2021 16:03:14,20/07/2021 12:03:14,56975,3,4304278,60eeffb407f8d0c9c876a130,Chrome 91.0.4472.124,reminder,2,SS7,24,Screen 1,response_keyboard,276.90000000037253,1,1,1,0,test_trial,SS7,pred,grocery store.png,5,1
20/07/2021 16:03:14,20/07/2021 12:03:15,56975,3,4304278,60eeffb407f8d0c9c876a130,Chrome 91.0.4472.124,reminder,2,SS7,25,Screen 1,response_keyboard,1.900000000372529,4,1,1,0,test_trial,SS7,pred,grocery store.png,6,4
20/07/2021 16:03:20,20/07/2021 12:03:21,56975,3,4304278,60eeffb407f8d0c9c876a130,Chrome 91.0.4472.124,reminder,2,SS7,28,Screen 1,response_keyboard,1062.7000000011176,3,1,1,0,test_trial,SS7,pred,grocery store.png,1,3
20/07/2021 16:03:21,20/07/2021 12:03:21,56975,3,4304278,60eeffb407f8d0c9c876a130,Chrome 91.0.4472.124,reminder,2,SS7,29,Screen 1,response_keyboard,297.59999999962747,2,1,1,0,test_trial,SS7,pred,grocery store.png,2,2
20/07/2021 16:03:22,20/07/2021 12:03:22,56975,3,4304278,60eeffb407f8d0c9c876a130,Chrome 91.0.4472.124,reminder,2,SS7,30,Screen 1,response_keyboard,328.1000000014901,4,1,1,0,test_trial,SS7,pred,grocery store.png,3,4
20/07/2021 16:03:23,20/07/2021 12:03:23,56975,3,4304278,60eeffb407f8d0c9c876a130,Chrome 91.0.4472.124,reminder,2,SS7,31,Screen 1,response_keyboard,281.69999999925494,2,1,1,0,test_trial,SS7,pred,grocery store.png,4,2
20/07/2021 16:03:23,20/07/2021 12:03:24,56975,3,4304278,60eeffb407f8d0c9c876a130,Chrome 91.0.4472.124,reminder,2,SS7,32,Screen 1,response_keyboard,312.7000000011176,1,1,1,0,test_trial,SS7,pred,grocery store.png,5,1
20/07/2021 16:03:24,20/07/2021 12:03:25,56975,3,4304278,60eeffb407f8d0c9c876a130,Chrome 91.0.4472.124,reminder,2,SS7,33,Screen 1,response_keyboard,111.5,4,1,1,0,test_trial,SS7,pred,grocery store.png,6,4
20/07/2021 17:39:07,20/07/2021 13:39:07,56975,3,4306148,5efea59344deef3c6ce012b2,Chrome 91.0.4472.124,reminder,2,SS6,20,Screen 1,response_keyboard,841.8999999999069,1,1,1,0,test_trial,SS6,pred,pet store.png,1,1
20/07/2021 17:39:07,20/07/2021 13:39:07,56975,3,4306148,5efea59344deef3c6ce012b2,Chrome 91.0.4472.124,reminder,2,SS6,21,Screen 1,response_keyboard,305,4,1,1,0,test_trial,SS6,pred,pet store.png,2,4
20/07/2021 17:39:08,20/07/2021 13:39:08,56975,3,4306148,5efea59344deef3c6ce012b2,Chrome 91.0.4472.124,reminder,2,SS6,22,Screen 1,response_keyboard,237.89999999990687,3,1,1,0,test_trial,SS6,pred,pet store.png,3,3
20/07/2021 17:39:09,20/07/2021 13:39:09,56975,3,4306148,5efea59344deef3c6ce012b2,Chrome 91.0.4472.124,reminder,2,SS6,23,Screen 1,response_keyboard,160.70000000018626,4,1,1,0,test_trial,SS6,pred,pet store.png,4,4
20/07/2021 17:39:10,20/07/2021 13:39:09,56975,3,4306148,5efea59344deef3c6ce012b2,Chrome 91.0.4472.124,reminder,2,SS6,24,Screen 1,response_keyboard,134.10000000009313,2,1,1,0,test_trial,SS6,pred,pet store.png,5,2
20/07/2021 17:39:10,20/07/2021 13:39:10,56975,3,4306148,5efea59344deef3c6ce012b2,Chrome 91.0.4472.124,reminder,2,SS6,25,Screen 1,response_keyboard,2.099999999627471,3,1,1,0,test_trial,SS6,pred,pet store.png,6,3
20/07/2021 17:39:15,20/07/2021 13:39:15,56975,3,4306148,5efea59344deef3c6ce012b2,Chrome 91.0.4472.124,reminder,2,SS6,28,Screen 1,response_keyboard,515.1000000000931,1,1,1,0,test_trial,SS6,pred,pet store.png,1,1
20/07/2021 17:39:16,20/07/2021 13:39:16,56975,3,4306148,5efea59344deef3c6ce012b2,Chrome 91.0.4472.124,reminder,2,SS6,29,Screen 1,response_keyboard,177.60000000009313,4,1,1,0,test_trial,SS6,pred,pet store.png,2,4
20/07/2021 17:39:17,20/07/2021 13:39:17,56975,3,4306148,5efea59344deef3c6ce012b2,Chrome 91.0.4472.124,reminder,2,SS6,30,Screen 1,response_keyboard,166.10000000009313,2,1,0,0,test_trial,SS6,pred,pet store.png,3,3
20/07/2021 17:39:21,20/07/2021 13:39:21,56975,3,4306148,5efea59344deef3c6ce012b2,Chrome 91.0.4472.124,reminder,2,SS6,31,Screen 1,response_keyboard,4131,4,1,1,0,test_trial,SS6,pred,pet store.png,4,4
20/07/2021 17:39:23,20/07/2021 13:39:23,56975,3,4306148,5efea59344deef3c6ce012b2,Chrome 91.0.4472.124,reminder,2,SS6,32,Screen 1,response_keyboard,779,2,1,1,0,test_trial,SS6,pred,pet store.png,5,2
20/07/2021 17:39:23,20/07/2021 13:39:23,56975,3,4306148,5efea59344deef3c6ce012b2,Chrome 91.0.4472.124,reminder,2,SS6,33,Screen 1,response_keyboard,270.10000000009313,3,1,1,0,test_trial,SS6,pred,pet store.png,6,3
20/07/2021 18:33:57,20/07/2021 11:33:56,56975,3,4306657,602454a47d0d7d121a1e444b,Chrome 91.0.4472.124,reminder,2,SS8,20,Screen 1,response_keyboard,911.3999999761581,3,1,1,0,test_trial,SS8,pred,pet store.png,1,3
20/07/2021 18:33:58,20/07/2021 11:33:57,56975,3,4306657,602454a47d0d7d121a1e444b,Chrome 91.0.4472.124,reminder,2,SS8,21,Screen 1,response_keyboard,262.19999998807907,2,1,1,0,test_trial,SS8,pred,pet store.png,2,2
20/07/2021 18:33:58,20/07/2021 11:33:57,56975,3,4306657,602454a47d0d7d121a1e444b,Chrome 91.0.4472.124,reminder,2,SS8,22,Screen 1,response_keyboard,179.79999995231628,4,1,1,0,test_trial,SS8,pred,pet store.png,3,4
20/07/2021 18:33:59,20/07/2021 11:33:58,56975,3,4306657,602454a47d0d7d121a1e444b,Chrome 91.0.4472.124,reminder,2,SS8,23,Screen 1,response_keyboard,151,2,1,1,0,test_trial,SS8,pred,pet store.png,4,2
20/07/2021 18:34:00,20/07/2021 11:33:59,56975,3,4306657,602454a47d0d7d121a1e444b,Chrome 91.0.4472.124,reminder,2,SS8,24,Screen 1,response_keyboard,211.80000001192093,1,1,1,0,test_trial,SS8,pred,pet store.png,5,1
20/07/2021 18:34:01,20/07/2021 11:33:59,56975,3,4306657,602454a47d0d7d121a1e444b,Chrome 91.0.4472.124,reminder,2,SS8,25,Screen 1,response_keyboard,178,4,1,1,0,test_trial,SS8,pred,pet store.png,6,4
20/07/2021 18:34:06,20/07/2021 11:34:05,56975,3,4306657,602454a47d0d7d121a1e444b,Chrome 91.0.4472.124,reminder,2,SS8,28,Screen 1,response_keyboard,735,3,1,1,0,test_trial,SS8,pred,pet store.png,1,3
20/07/2021 18:34:07,20/07/2021 11:34:06,56975,3,4306657,602454a47d0d7d121a1e444b,Chrome 91.0.4472.124,reminder,2,SS8,29,Screen 1,response_keyboard,219.0999999642372,2,1,1,0,test_trial,SS8,pred,pet store.png,2,2
20/07/2021 18:34:07,20/07/2021 11:34:06,56975,3,4306657,602454a47d0d7d121a1e444b,Chrome 91.0.4472.124,reminder,2,SS8,30,Screen 1,response_keyboard,183.5,4,1,1,0,test_trial,SS8,pred,pet store.png,3,4
20/07/2021 18:34:08,20/07/2021 11:34:07,56975,3,4306657,602454a47d0d7d121a1e444b,Chrome 91.0.4472.124,reminder,2,SS8,31,Screen 1,response_keyboard,159.80000001192093,2,1,1,0,test_trial,SS8,pred,pet store.png,4,2
20/07/2021 18:34:09,20/07/2021 11:34:08,56975,3,4306657,602454a47d0d7d121a1e444b,Chrome 91.0.4472.124,reminder,2,SS8,32,Screen 1,response_keyboard,136.10000002384186,1,1,1,0,test_trial,SS8,pred,pet store.png,5,1
20/07/2021 18:34:09,20/07/2021 11:34:08,56975,3,4306657,602454a47d0d7d121a1e444b,Chrome 91.0.4472.124,reminder,2,SS8,33,Screen 1,response_keyboard,219.10000002384186,4,1,1,0,test_trial,SS8,pred,pet store.png,6,4
29/07/2021 21:44:37,29/07/2021 16:44:37,56975,3,4378844,6100375efa00788c5f537760,Chrome 91.0.4472.114,reminder,2,SS6,20,Screen 1,response_keyboard,595.2000000476837,1,1,1,0,test_trial,SS6,pred,pet store.png,1,1
29/07/2021 21:44:38,29/07/2021 16:44:38,56975,3,4378844,6100375efa00788c5f537760,Chrome 91.0.4472.114,reminder,2,SS6,21,Screen 1,response_keyboard,273.8000000715256,4,1,1,0,test_trial,SS6,pred,pet store.png,2,4
29/07/2021 21:44:39,29/07/2021 16:44:39,56975,3,4378844,6100375efa00788c5f537760,Chrome 91.0.4472.114,reminder,2,SS6,22,Screen 1,response_keyboard,225.60000002384186,3,1,1,0,test_trial,SS6,pred,pet store.png,3,3
29/07/2021 21:44:39,29/07/2021 16:44:39,56975,3,4378844,6100375efa00788c5f537760,Chrome 91.0.4472.114,reminder,2,SS6,23,Screen 1,response_keyboard,173.90000009536743,4,1,1,0,test_trial,SS6,pred,pet store.png,4,4
29/07/2021 21:44:40,29/07/2021 16:44:40,56975,3,4378844,6100375efa00788c5f537760,Chrome 91.0.4472.114,reminder,2,SS6,24,Screen 1,response_keyboard,48.39999997615814,2,1,1,0,test_trial,SS6,pred,pet store.png,5,2
29/07/2021 21:44:41,29/07/2021 16:44:40,56975,3,4378844,6100375efa00788c5f537760,Chrome 91.0.4472.114,reminder,2,SS6,25,Screen 1,response_keyboard,56.60000002384186,3,1,1,0,test_trial,SS6,pred,pet store.png,6,3
29/07/2021 21:44:46,29/07/2021 16:44:46,56975,3,4378844,6100375efa00788c5f537760,Chrome 91.0.4472.114,reminder,2,SS6,28,Screen 1,response_keyboard,451.6999999284744,1,1,1,0,test_trial,SS6,pred,pet store.png,1,1
29/07/2021 21:44:46,29/07/2021 16:44:46,56975,3,4378844,6100375efa00788c5f537760,Chrome 91.0.4472.114,reminder,2,SS6,29,Screen 1,response_keyboard,90.20000004768372,4,1,1,0,test_trial,SS6,pred,pet store.png,2,4
29/07/2021 21:44:47,29/07/2021 16:44:47,56975,3,4378844,6100375efa00788c5f537760,Chrome 91.0.4472.114,reminder,2,SS6,30,Screen 1,response_keyboard,151.79999995231628,3,1,1,0,test_trial,SS6,pred,pet store.png,3,3
29/07/2021 21:44:48,29/07/2021 16:44:48,56975,3,4378844,6100375efa00788c5f537760,Chrome 91.0.4472.114,reminder,2,SS6,31,Screen 1,response_keyboard,253.19999992847443,2,1,0,0,test_trial,SS6,pred,pet store.png,4,4
29/07/2021 21:44:49,29/07/2021 16:44:49,56975,3,4378844,6100375efa00788c5f537760,Chrome 91.0.4472.114,reminder,2,SS6,32,Screen 1,response_keyboard,830.6999999284744,3,1,0,0,test_trial,SS6,pred,pet store.png,5,2
29/07/2021 21:44:50,29/07/2021 16:44:50,56975,3,4378844,6100375efa00788c5f537760,Chrome 91.0.4472.114,reminder,2,SS6,33,Screen 1,response_keyboard,680.7999999523163,4,1,0,0,test_trial,SS6,pred,pet store.png,6,3
29/07/2021 21:46:11,29/07/2021 16:46:11,56975,3,4378843,61005a8634c738a44133eeee,Chrome 92.0.4515.107,reminder,2,SS5,20,Screen 1,response_keyboard,1016.6000000238419,1,1,1,0,test_trial,SS5,pred,grocery store.png,1,1
29/07/2021 21:46:13,29/07/2021 16:46:11,56975,3,4378843,61005a8634c738a44133eeee,Chrome 92.0.4515.107,reminder,2,SS5,21,Screen 1,response_keyboard,345.69999998807907,4,1,1,0,test_trial,SS5,pred,grocery store.png,2,4
29/07/2021 21:46:14,29/07/2021 16:46:12,56975,3,4378843,61005a8634c738a44133eeee,Chrome 92.0.4515.107,reminder,2,SS5,22,Screen 1,response_keyboard,204.09999999403954,3,1,1,0,test_trial,SS5,pred,grocery store.png,3,3
29/07/2021 21:46:14,29/07/2021 16:46:13,56975,3,4378843,61005a8634c738a44133eeee,Chrome 92.0.4515.107,reminder,2,SS5,23,Screen 1,response_keyboard,52,4,1,1,0,test_trial,SS5,pred,grocery store.png,4,4
29/07/2021 21:46:14,29/07/2021 16:46:14,56975,3,4378843,61005a8634c738a44133eeee,Chrome 92.0.4515.107,reminder,2,SS5,24,Screen 1,response_keyboard,669,2,1,1,0,test_trial,SS5,pred,grocery store.png,5,2
29/07/2021 21:46:16,29/07/2021 16:46:15,56975,3,4378843,61005a8634c738a44133eeee,Chrome 92.0.4515.107,reminder,2,SS5,25,Screen 1,response_keyboard,251.59999999403954,3,1,1,0,test_trial,SS5,pred,grocery store.png,6,3
29/07/2021 21:46:22,29/07/2021 16:46:20,56975,3,4378843,61005a8634c738a44133eeee,Chrome 92.0.4515.107,reminder,2,SS5,28,Screen 1,response_keyboard,523.2000000178814,1,1,1,0,test_trial,SS5,pred,grocery store.png,1,1
29/07/2021 21:46:22,29/07/2021 16:46:21,56975,3,4378843,61005a8634c738a44133eeee,Chrome 92.0.4515.107,reminder,2,SS5,29,Screen 1,response_keyboard,216.59999999403954,4,1,1,0,test_trial,SS5,pred,grocery store.png,2,4
29/07/2021 21:46:23,29/07/2021 16:46:22,56975,3,4378843,61005a8634c738a44133eeee,Chrome 92.0.4515.107,reminder,2,SS5,30,Screen 1,response_keyboard,836.1999999880791,3,1,1,0,test_trial,SS5,pred,grocery store.png,3,3
29/07/2021 21:46:24,29/07/2021 16:46:23,56975,3,4378843,61005a8634c738a44133eeee,Chrome 92.0.4515.107,reminder,2,SS5,31,Screen 1,response_keyboard,100.2999999821186,4,1,1,0,test_trial,SS5,pred,grocery store.png,4,4
29/07/2021 21:46:24,29/07/2021 16:46:23,56975,3,4378843,61005a8634c738a44133eeee,Chrome 92.0.4515.107,reminder,2,SS5,32,Screen 1,response_keyboard,112.09999999403954,2,1,1,0,test_trial,SS5,pred,grocery store.png,5,2
29/07/2021 21:46:25,29/07/2021 16:46:24,56975,3,4378843,61005a8634c738a44133eeee,Chrome 92.0.4515.107,reminder,2,SS5,33,Screen 1,response_keyboard,33.400000005960464,3,1,1,0,test_trial,SS5,pred,grocery store.png,6,3
29/07/2021 21:49:10,29/07/2021 17:49:10,56975,3,4378867,610049da8150fc6d3e6d6edc,Chrome 92.0.4515.107,reminder,2,SS2,20,Screen 1,response_keyboard,553.5999999940395,1,1,1,0,test_trial,SS2,pred,pet store.png,1,1
29/07/2021 21:49:11,29/07/2021 17:49:11,56975,3,4378867,610049da8150fc6d3e6d6edc,Chrome 92.0.4515.107,reminder,2,SS2,21,Screen 1,response_keyboard,330.29999999701977,4,1,1,0,test_trial,SS2,pred,pet store.png,2,4
29/07/2021 21:49:11,29/07/2021 17:49:12,56975,3,4378867,610049da8150fc6d3e6d6edc,Chrome 92.0.4515.107,reminder,2,SS2,22,Screen 1,response_keyboard,262.5,3,1,1,0,test_trial,SS2,pred,pet store.png,3,3
29/07/2021 21:49:12,29/07/2021 17:49:13,56975,3,4378867,610049da8150fc6d3e6d6edc,Chrome 92.0.4515.107,reminder,2,SS2,23,Screen 1,response_keyboard,268.29999999701977,4,1,1,0,test_trial,SS2,pred,pet store.png,4,4
29/07/2021 21:49:13,29/07/2021 17:49:14,56975,3,4378867,610049da8150fc6d3e6d6edc,Chrome 92.0.4515.107,reminder,2,SS2,24,Screen 1,response_keyboard,411.1000000089407,2,1,1,0,test_trial,SS2,pred,pet store.png,5,2
29/07/2021 21:49:14,29/07/2021 17:49:15,56975,3,4378867,610049da8150fc6d3e6d6edc,Chrome 92.0.4515.107,reminder,2,SS2,25,Screen 1,response_keyboard,289.1000000089407,3,1,1,0,test_trial,SS2,pred,pet store.png,6,3
29/07/2021 21:49:20,29/07/2021 17:49:21,56975,3,4378867,610049da8150fc6d3e6d6edc,Chrome 92.0.4515.107,reminder,2,SS2,28,Screen 1,response_keyboard,1246.699999988079,1,1,1,0,test_trial,SS2,pred,pet store.png,1,1
29/07/2021 21:49:21,29/07/2021 17:49:22,56975,3,4378867,610049da8150fc6d3e6d6edc,Chrome 92.0.4515.107,reminder,2,SS2,29,Screen 1,response_keyboard,418.5,4,1,1,0,test_trial,SS2,pred,pet store.png,2,4
29/07/2021 21:49:22,29/07/2021 17:49:23,56975,3,4378867,610049da8150fc6d3e6d6edc,Chrome 92.0.4515.107,reminder,2,SS2,30,Screen 1,response_keyboard,580.8000000119209,3,1,1,0,test_trial,SS2,pred,pet store.png,3,3
29/07/2021 21:49:23,29/07/2021 17:49:24,56975,3,4378867,610049da8150fc6d3e6d6edc,Chrome 92.0.4515.107,reminder,2,SS2,31,Screen 1,response_keyboard,245.29999999701977,4,1,1,0,test_trial,SS2,pred,pet store.png,4,4
29/07/2021 21:49:24,29/07/2021 17:49:25,56975,3,4378867,610049da8150fc6d3e6d6edc,Chrome 92.0.4515.107,reminder,2,SS2,32,Screen 1,response_keyboard,406.79999999701977,2,1,1,0,test_trial,SS2,pred,pet store.png,5,2
29/07/2021 21:49:25,29/07/2021 17:49:26,56975,3,4378867,610049da8150fc6d3e6d6edc,Chrome 92.0.4515.107,reminder,2,SS2,33,Screen 1,response_keyboard,376.79999999701977,3,1,1,0,test_trial,SS2,pred,pet store.png,6,3
29/07/2021 21:52:26,29/07/2021 16:52:25,56975,3,4378955,607f1fa0ec24246f9ddb21b0,Firefox 90.0,reminder,2,SS7,20,Screen 1,response_keyboard,684,3,1,1,0,test_trial,SS7,pred,grocery store.png,1,3
29/07/2021 21:52:27,29/07/2021 16:52:27,56975,3,4378955,607f1fa0ec24246f9ddb21b0,Firefox 90.0,reminder,2,SS7,21,Screen 1,response_keyboard,769,2,1,1,0,test_trial,SS7,pred,grocery store.png,2,2
29/07/2021 21:52:28,29/07/2021 16:52:28,56975,3,4378955,607f1fa0ec24246f9ddb21b0,Firefox 90.0,reminder,2,SS7,22,Screen 1,response_keyboard,728,4,1,1,0,test_trial,SS7,pred,grocery store.png,3,4
29/07/2021 21:52:30,29/07/2021 16:52:29,56975,3,4378955,607f1fa0ec24246f9ddb21b0,Firefox 90.0,reminder,2,SS7,23,Screen 1,response_keyboard,720,2,1,1,0,test_trial,SS7,pred,grocery store.png,4,2
29/07/2021 21:52:31,29/07/2021 16:52:30,56975,3,4378955,607f1fa0ec24246f9ddb21b0,Firefox 90.0,reminder,2,SS7,24,Screen 1,response_keyboard,545,1,1,1,0,test_trial,SS7,pred,grocery store.png,5,1
29/07/2021 21:52:32,29/07/2021 16:52:31,56975,3,4378955,607f1fa0ec24246f9ddb21b0,Firefox 90.0,reminder,2,SS7,25,Screen 1,response_keyboard,695,4,1,1,0,test_trial,SS7,pred,grocery store.png,6,4
29/07/2021 21:52:39,29/07/2021 16:52:38,56975,3,4378955,607f1fa0ec24246f9ddb21b0,Firefox 90.0,reminder,2,SS7,28,Screen 1,response_keyboard,2154,3,1,1,0,test_trial,SS7,pred,grocery store.png,1,3
29/07/2021 21:52:40,29/07/2021 16:52:39,56975,3,4378955,607f1fa0ec24246f9ddb21b0,Firefox 90.0,reminder,2,SS7,29,Screen 1,response_keyboard,650,2,1,1,0,test_trial,SS7,pred,grocery store.png,2,2
29/07/2021 21:52:41,29/07/2021 16:52:40,56975,3,4378955,607f1fa0ec24246f9ddb21b0,Firefox 90.0,reminder,2,SS7,30,Screen 1,response_keyboard,513,4,1,1,0,test_trial,SS7,pred,grocery store.png,3,4
29/07/2021 21:52:42,29/07/2021 16:52:41,56975,3,4378955,607f1fa0ec24246f9ddb21b0,Firefox 90.0,reminder,2,SS7,31,Screen 1,response_keyboard,536,2,1,1,0,test_trial,SS7,pred,grocery store.png,4,2
29/07/2021 21:52:43,29/07/2021 16:52:43,56975,3,4378955,607f1fa0ec24246f9ddb21b0,Firefox 90.0,reminder,2,SS7,32,Screen 1,response_keyboard,709,1,1,1,0,test_trial,SS7,pred,grocery store.png,5,1
29/07/2021 21:52:44,29/07/2021 16:52:44,56975,3,4378955,607f1fa0ec24246f9ddb21b0,Firefox 90.0,reminder,2,SS7,33,Screen 1,response_keyboard,480,4,1,1,0,test_trial,SS7,pred,grocery store.png,6,4
29/07/2021 21:54:41,29/07/2021 17:54:41,56975,3,4378964,6100dba1b4dd8f65ce74b530,Chrome 91.0.4472.164,reminder,2,SS4,20,Screen 1,response_keyboard,471.30000000447035,3,1,1,0,test_trial,SS4,pred,pet store.png,1,3
29/07/2021 21:54:43,29/07/2021 17:54:42,56975,3,4378964,6100dba1b4dd8f65ce74b530,Chrome 91.0.4472.164,reminder,2,SS4,21,Screen 1,response_keyboard,860.2999999970198,2,1,1,0,test_trial,SS4,pred,pet store.png,2,2
29/07/2021 21:54:44,29/07/2021 17:54:44,56975,3,4378964,6100dba1b4dd8f65ce74b530,Chrome 91.0.4472.164,reminder,2,SS4,22,Screen 1,response_keyboard,653.8999999985099,4,1,1,0,test_trial,SS4,pred,pet store.png,3,4
29/07/2021 21:54:45,29/07/2021 17:54:45,56975,3,4378964,6100dba1b4dd8f65ce74b530,Chrome 91.0.4472.164,reminder,2,SS4,23,Screen 1,response_keyboard,486.1000000014901,2,1,1,0,test_trial,SS4,pred,pet store.png,4,2
29/07/2021 21:54:46,29/07/2021 17:54:46,56975,3,4378964,6100dba1b4dd8f65ce74b530,Chrome 91.0.4472.164,reminder,2,SS4,24,Screen 1,response_keyboard,528.1000000014901,1,1,1,0,test_trial,SS4,pred,pet store.png,5,1
29/07/2021 21:54:47,29/07/2021 17:54:47,56975,3,4378964,6100dba1b4dd8f65ce74b530,Chrome 91.0.4472.164,reminder,2,SS4,25,Screen 1,response_keyboard,513.2999999970198,4,1,1,0,test_trial,SS4,pred,pet store.png,6,4
29/07/2021 21:54:52,29/07/2021 17:54:52,56975,3,4378964,6100dba1b4dd8f65ce74b530,Chrome 91.0.4472.164,reminder,2,SS4,28,Screen 1,response_keyboard,662.6000000014901,3,1,1,0,test_trial,SS4,pred,pet store.png,1,3
29/07/2021 21:54:53,29/07/2021 17:54:53,56975,3,4378964,6100dba1b4dd8f65ce74b530,Chrome 91.0.4472.164,reminder,2,SS4,29,Screen 1,response_keyboard,496.59999999403954,2,1,1,0,test_trial,SS4,pred,pet store.png,2,2
29/07/2021 21:54:54,29/07/2021 17:54:54,56975,3,4378964,6100dba1b4dd8f65ce74b530,Chrome 91.0.4472.164,reminder,2,SS4,30,Screen 1,response_keyboard,485.19999999552965,4,1,1,0,test_trial,SS4,pred,pet store.png,3,4
29/07/2021 21:54:55,29/07/2021 17:54:55,56975,3,4378964,6100dba1b4dd8f65ce74b530,Chrome 91.0.4472.164,reminder,2,SS4,31,Screen 1,response_keyboard,536.6000000014901,2,1,1,0,test_trial,SS4,pred,pet store.png,4,2
29/07/2021 21:54:56,29/07/2021 17:54:56,56975,3,4378964,6100dba1b4dd8f65ce74b530,Chrome 91.0.4472.164,reminder,2,SS4,32,Screen 1,response_keyboard,464.19999999552965,1,1,1,0,test_trial,SS4,pred,pet store.png,5,1
29/07/2021 21:54:57,29/07/2021 17:54:57,56975,3,4378964,6100dba1b4dd8f65ce74b530,Chrome 91.0.4472.164,reminder,2,SS4,33,Screen 1,response_keyboard,459.70000000298023,4,1,1,0,test_trial,SS4,pred,pet store.png,6,4
29/07/2021 21:55:00,29/07/2021 14:55:00,56975,3,4378879,610048e961510604e3dd8705,Safari 14.1.2,reminder,2,SS3,20,Screen 1,response_keyboard,763,3,1,1,0,test_trial,SS3,pred,grocery store.png,1,3
29/07/2021 21:55:01,29/07/2021 14:55:01,56975,3,4378879,610048e961510604e3dd8705,Safari 14.1.2,reminder,2,SS3,21,Screen 1,response_keyboard,39.000000000007276,2,1,1,0,test_trial,SS3,pred,grocery store.png,2,2
29/07/2021 21:55:02,29/07/2021 14:55:02,56975,3,4378879,610048e961510604e3dd8705,Safari 14.1.2,reminder,2,SS3,22,Screen 1,response_keyboard,204,4,1,1,0,test_trial,SS3,pred,grocery store.png,3,4
29/07/2021 21:55:05,29/07/2021 14:55:05,56975,3,4378879,610048e961510604e3dd8705,Safari 14.1.2,reminder,2,SS3,23,Screen 1,response_keyboard,3218,2,1,1,0,test_trial,SS3,pred,grocery store.png,4,2
29/07/2021 21:55:06,29/07/2021 14:55:06,56975,3,4378879,610048e961510604e3dd8705,Safari 14.1.2,reminder,2,SS3,24,Screen 1,response_keyboard,486.0000000000073,1,1,1,0,test_trial,SS3,pred,grocery store.png,5,1
29/07/2021 21:55:07,29/07/2021 14:55:07,56975,3,4378879,610048e961510604e3dd8705,Safari 14.1.2,reminder,2,SS3,25,Screen 1,response_keyboard,508,4,1,1,0,test_trial,SS3,pred,grocery store.png,6,4
29/07/2021 21:55:13,29/07/2021 14:55:13,56975,3,4378879,610048e961510604e3dd8705,Safari 14.1.2,reminder,2,SS3,28,Screen 1,response_keyboard,782,3,1,1,0,test_trial,SS3,pred,grocery store.png,1,3
29/07/2021 21:55:14,29/07/2021 14:55:14,56975,3,4378879,610048e961510604e3dd8705,Safari 14.1.2,reminder,2,SS3,29,Screen 1,response_keyboard,339,2,1,1,0,test_trial,SS3,pred,grocery store.png,2,2
29/07/2021 21:55:15,29/07/2021 14:55:15,56975,3,4378879,610048e961510604e3dd8705,Safari 14.1.2,reminder,2,SS3,30,Screen 1,response_keyboard,284.99999999998545,4,1,1,0,test_trial,SS3,pred,grocery store.png,3,4
29/07/2021 21:55:16,29/07/2021 14:55:16,56975,3,4378879,610048e961510604e3dd8705,Safari 14.1.2,reminder,2,SS3,31,Screen 1,response_keyboard,364,2,1,1,0,test_trial,SS3,pred,grocery store.png,4,2
29/07/2021 21:55:16,29/07/2021 14:55:16,56975,3,4378879,610048e961510604e3dd8705,Safari 14.1.2,reminder,2,SS3,32,Screen 1,response_keyboard,362,1,1,1,0,test_trial,SS3,pred,grocery store.png,5,1
29/07/2021 21:55:17,29/07/2021 14:55:17,56975,3,4378879,610048e961510604e3dd8705,Safari 14.1.2,reminder,2,SS3,33,Screen 1,response_keyboard,392,4,1,1,0,test_trial,SS3,pred,grocery store.png,6,4
29/07/2021 21:54:49,29/07/2021 16:54:49,56975,3,4378951,61023e0830e893bec6bd8f3c,Chrome 92.0.4515.107,reminder,2,SS4,20,Screen 1,response_keyboard,760.6999999880791,3,1,1,0,test_trial,SS4,pred,pet store.png,1,3
29/07/2021 21:54:51,29/07/2021 16:54:50,56975,3,4378951,61023e0830e893bec6bd8f3c,Chrome 92.0.4515.107,reminder,2,SS4,21,Screen 1,response_keyboard,616.8000000119209,2,1,1,0,test_trial,SS4,pred,pet store.png,2,2
29/07/2021 21:54:52,29/07/2021 16:54:51,56975,3,4378951,61023e0830e893bec6bd8f3c,Chrome 92.0.4515.107,reminder,2,SS4,22,Screen 1,response_keyboard,627.3999999761581,4,1,1,0,test_trial,SS4,pred,pet store.png,3,4
29/07/2021 21:54:53,29/07/2021 16:54:52,56975,3,4378951,61023e0830e893bec6bd8f3c,Chrome 92.0.4515.107,reminder,2,SS4,23,Screen 1,response_keyboard,608.8999999761581,2,1,1,0,test_trial,SS4,pred,pet store.png,4,2
29/07/2021 21:54:54,29/07/2021 16:54:53,56975,3,4378951,61023e0830e893bec6bd8f3c,Chrome 92.0.4515.107,reminder,2,SS4,24,Screen 1,response_keyboard,705.8000000119209,1,1,1,0,test_trial,SS4,pred,pet store.png,5,1
29/07/2021 21:54:55,29/07/2021 16:54:55,56975,3,4378951,61023e0830e893bec6bd8f3c,Chrome 92.0.4515.107,reminder,2,SS4,25,Screen 1,response_keyboard,728.8000000119209,4,1,1,0,test_trial,SS4,pred,pet store.png,6,4
29/07/2021 21:55:01,29/07/2021 16:55:00,56975,3,4378951,61023e0830e893bec6bd8f3c,Chrome 92.0.4515.107,reminder,2,SS4,28,Screen 1,response_keyboard,735.6999999880791,3,1,1,0,test_trial,SS4,pred,pet store.png,1,3
29/07/2021 21:55:02,29/07/2021 16:55:01,56975,3,4378951,61023e0830e893bec6bd8f3c,Chrome 92.0.4515.107,reminder,2,SS4,29,Screen 1,response_keyboard,686,2,1,1,0,test_trial,SS4,pred,pet store.png,2,2
29/07/2021 21:55:03,29/07/2021 16:55:02,56975,3,4378951,61023e0830e893bec6bd8f3c,Chrome 92.0.4515.107,reminder,2,SS4,30,Screen 1,response_keyboard,585.8000000119209,4,1,1,0,test_trial,SS4,pred,pet store.png,3,4
29/07/2021 21:55:05,29/07/2021 16:55:04,56975,3,4378951,61023e0830e893bec6bd8f3c,Chrome 92.0.4515.107,reminder,2,SS4,31,Screen 1,response_keyboard,647,2,1,1,0,test_trial,SS4,pred,pet store.png,4,2
29/07/2021 21:55:06,29/07/2021 16:55:05,56975,3,4378951,61023e0830e893bec6bd8f3c,Chrome 92.0.4515.107,reminder,2,SS4,32,Screen 1,response_keyboard,598.1999999880791,1,1,1,0,test_trial,SS4,pred,pet store.png,5,1
29/07/2021 21:55:07,29/07/2021 16:55:06,56975,3,4378951,61023e0830e893bec6bd8f3c,Chrome 92.0.4515.107,reminder,2,SS4,33,Screen 1,response_keyboard,578.3999999761581,4,1,1,0,test_trial,SS4,pred,pet store.png,6,4
29/07/2021 21:54:56,29/07/2021 14:54:55,56975,3,4378968,60fcc79a2291d286eae03c2c,Chrome 92.0.4515.107,reminder,2,SS6,20,Screen 1,response_keyboard,599.1000000014901,1,1,1,0,test_trial,SS6,pred,pet store.png,1,1
29/07/2021 21:54:56,29/07/2021 14:54:56,56975,3,4378968,60fcc79a2291d286eae03c2c,Chrome 92.0.4515.107,reminder,2,SS6,21,Screen 1,response_keyboard,363.70000000298023,4,1,1,0,test_trial,SS6,pred,pet store.png,2,4
29/07/2021 21:54:58,29/07/2021 14:54:57,56975,3,4378968,60fcc79a2291d286eae03c2c,Chrome 92.0.4515.107,reminder,2,SS6,22,Screen 1,response_keyboard,585,3,1,1,0,test_trial,SS6,pred,pet store.png,3,3
29/07/2021 21:54:59,29/07/2021 14:54:59,56975,3,4378968,60fcc79a2291d286eae03c2c,Chrome 92.0.4515.107,reminder,2,SS6,23,Screen 1,response_keyboard,629.7000000029802,4,1,1,0,test_trial,SS6,pred,pet store.png,4,4
29/07/2021 21:55:00,29/07/2021 14:54:59,56975,3,4378968,60fcc79a2291d286eae03c2c,Chrome 92.0.4515.107,reminder,2,SS6,24,Screen 1,response_keyboard,431.70000000298023,2,1,1,0,test_trial,SS6,pred,pet store.png,5,2
29/07/2021 21:55:01,29/07/2021 14:55:00,56975,3,4378968,60fcc79a2291d286eae03c2c,Chrome 92.0.4515.107,reminder,2,SS6,25,Screen 1,response_keyboard,469.19999999552965,3,1,1,0,test_trial,SS6,pred,pet store.png,6,3
29/07/2021 21:55:06,29/07/2021 14:55:06,56975,3,4378968,60fcc79a2291d286eae03c2c,Chrome 92.0.4515.107,reminder,2,SS6,28,Screen 1,response_keyboard,476.1000000014901,1,1,1,0,test_trial,SS6,pred,pet store.png,1,1
29/07/2021 21:55:07,29/07/2021 14:55:07,56975,3,4378968,60fcc79a2291d286eae03c2c,Chrome 92.0.4515.107,reminder,2,SS6,29,Screen 1,response_keyboard,313.6000000014901,4,1,1,0,test_trial,SS6,pred,pet store.png,2,4
29/07/2021 21:55:08,29/07/2021 14:55:07,56975,3,4378968,60fcc79a2291d286eae03c2c,Chrome 92.0.4515.107,reminder,2,SS6,30,Screen 1,response_keyboard,380.5,3,1,1,0,test_trial,SS6,pred,pet store.png,3,3
29/07/2021 21:55:08,29/07/2021 14:55:08,56975,3,4378968,60fcc79a2291d286eae03c2c,Chrome 92.0.4515.107,reminder,2,SS6,31,Screen 1,response_keyboard,313,4,1,1,0,test_trial,SS6,pred,pet store.png,4,4
29/07/2021 21:55:09,29/07/2021 14:55:09,56975,3,4378968,60fcc79a2291d286eae03c2c,Chrome 92.0.4515.107,reminder,2,SS6,32,Screen 1,response_keyboard,315.30000000447035,2,1,1,0,test_trial,SS6,pred,pet store.png,5,2
29/07/2021 21:55:10,29/07/2021 14:55:10,56975,3,4378968,60fcc79a2291d286eae03c2c,Chrome 92.0.4515.107,reminder,2,SS6,33,Screen 1,response_keyboard,337,3,1,1,0,test_trial,SS6,pred,pet store.png,6,3
29/07/2021 21:54:58,29/07/2021 17:54:59,56975,3,4378948,6101d3dd8a5037f20dfc505f,Chrome 92.0.4515.107,reminder,2,SS5,20,Screen 1,response_keyboard,1010.8000000715256,1,1,1,0,test_trial,SS5,pred,grocery store.png,1,1
29/07/2021 21:54:59,29/07/2021 17:55:00,56975,3,4378948,6101d3dd8a5037f20dfc505f,Chrome 92.0.4515.107,reminder,2,SS5,21,Screen 1,response_keyboard,521.5,4,1,1,0,test_trial,SS5,pred,grocery store.png,2,4
29/07/2021 21:55:01,29/07/2021 17:55:01,56975,3,4378948,6101d3dd8a5037f20dfc505f,Chrome 92.0.4515.107,reminder,2,SS5,22,Screen 1,response_keyboard,612.3000000715256,3,1,1,0,test_trial,SS5,pred,grocery store.png,3,3
29/07/2021 21:55:02,29/07/2021 17:55:03,56975,3,4378948,6101d3dd8a5037f20dfc505f,Chrome 92.0.4515.107,reminder,2,SS5,23,Screen 1,response_keyboard,596.5,4,1,1,0,test_trial,SS5,pred,grocery store.png,4,4
29/07/2021 21:55:03,29/07/2021 17:55:04,56975,3,4378948,6101d3dd8a5037f20dfc505f,Chrome 92.0.4515.107,reminder,2,SS5,24,Screen 1,response_keyboard,643,2,1,1,0,test_trial,SS5,pred,grocery store.png,5,2
29/07/2021 21:55:04,29/07/2021 17:55:05,56975,3,4378948,6101d3dd8a5037f20dfc505f,Chrome 92.0.4515.107,reminder,2,SS5,25,Screen 1,response_keyboard,494.10000002384186,3,1,1,0,test_trial,SS5,pred,grocery store.png,6,3
29/07/2021 21:55:09,29/07/2021 17:55:10,56975,3,4378948,6101d3dd8a5037f20dfc505f,Chrome 92.0.4515.107,reminder,2,SS5,28,Screen 1,response_keyboard,807,1,1,1,0,test_trial,SS5,pred,grocery store.png,1,1
29/07/2021 21:55:10,29/07/2021 17:55:12,56975,3,4378948,6101d3dd8a5037f20dfc505f,Chrome 92.0.4515.107,reminder,2,SS5,29,Screen 1,response_keyboard,592.6999999284744,4,1,1,0,test_trial,SS5,pred,grocery store.png,2,4
29/07/2021 21:55:12,29/07/2021 17:55:13,56975,3,4378948,6101d3dd8a5037f20dfc505f,Chrome 92.0.4515.107,reminder,2,SS5,30,Screen 1,response_keyboard,636.2999999523163,3,1,1,0,test_trial,SS5,pred,grocery store.png,3,3
29/07/2021 21:55:13,29/07/2021 17:55:14,56975,3,4378948,6101d3dd8a5037f20dfc505f,Chrome 92.0.4515.107,reminder,2,SS5,31,Screen 1,response_keyboard,573.6000000238419,4,1,1,0,test_trial,SS5,pred,grocery store.png,4,4
29/07/2021 21:55:14,29/07/2021 17:55:15,56975,3,4378948,6101d3dd8a5037f20dfc505f,Chrome 92.0.4515.107,reminder,2,SS5,32,Screen 1,response_keyboard,650.1000000238419,2,1,1,0,test_trial,SS5,pred,grocery store.png,5,2
29/07/2021 21:55:15,29/07/2021 17:55:16,56975,3,4378948,6101d3dd8a5037f20dfc505f,Chrome 92.0.4515.107,reminder,2,SS5,33,Screen 1,response_keyboard,491.8000000715256,3,1,1,0,test_trial,SS5,pred,grocery store.png,6,3
29/07/2021 21:55:24,29/07/2021 17:55:21,56975,3,4378930,6100496a0ef6706b8895cbf7,Chrome 91.0.4472.114,reminder,2,SS8,20,Screen 1,response_keyboard,853.4000000357628,3,1,1,0,test_trial,SS8,pred,pet store.png,1,3
29/07/2021 21:55:26,29/07/2021 17:55:23,56975,3,4378930,6100496a0ef6706b8895cbf7,Chrome 91.0.4472.114,reminder,2,SS8,21,Screen 1,response_keyboard,1201.5,2,1,1,0,test_trial,SS8,pred,pet store.png,2,2
29/07/2021 21:55:27,29/07/2021 17:55:24,56975,3,4378930,6100496a0ef6706b8895cbf7,Chrome 91.0.4472.114,reminder,2,SS8,22,Screen 1,response_keyboard,512.5,4,1,1,0,test_trial,SS8,pred,pet store.png,3,4
29/07/2021 21:55:28,29/07/2021 17:55:25,56975,3,4378930,6100496a0ef6706b8895cbf7,Chrome 91.0.4472.114,reminder,2,SS8,23,Screen 1,response_keyboard,578.6999999880791,2,1,1,0,test_trial,SS8,pred,pet store.png,4,2
29/07/2021 21:55:29,29/07/2021 17:55:26,56975,3,4378930,6100496a0ef6706b8895cbf7,Chrome 91.0.4472.114,reminder,2,SS8,24,Screen 1,response_keyboard,481.2000000476837,1,1,1,0,test_trial,SS8,pred,pet store.png,5,1
29/07/2021 21:55:30,29/07/2021 17:55:27,56975,3,4378930,6100496a0ef6706b8895cbf7,Chrome 91.0.4472.114,reminder,2,SS8,25,Screen 1,response_keyboard,386.80000001192093,4,1,1,0,test_trial,SS8,pred,pet store.png,6,4
29/07/2021 21:55:35,29/07/2021 17:55:32,56975,3,4378930,6100496a0ef6706b8895cbf7,Chrome 91.0.4472.114,reminder,2,SS8,28,Screen 1,response_keyboard,715.4000000357628,3,1,1,0,test_trial,SS8,pred,pet store.png,1,3
29/07/2021 21:55:36,29/07/2021 17:55:34,56975,3,4378930,6100496a0ef6706b8895cbf7,Chrome 91.0.4472.114,reminder,2,SS8,29,Screen 1,response_keyboard,758.7999999523163,2,1,1,0,test_trial,SS8,pred,pet store.png,2,2
29/07/2021 21:55:37,29/07/2021 17:55:34,56975,3,4378930,6100496a0ef6706b8895cbf7,Chrome 91.0.4472.114,reminder,2,SS8,30,Screen 1,response_keyboard,158.39999997615814,4,1,1,0,test_trial,SS8,pred,pet store.png,3,4
29/07/2021 21:55:38,29/07/2021 17:55:35,56975,3,4378930,6100496a0ef6706b8895cbf7,Chrome 91.0.4472.114,reminder,2,SS8,31,Screen 1,response_keyboard,195.10000002384186,2,1,1,0,test_trial,SS8,pred,pet store.png,4,2
29/07/2021 21:55:39,29/07/2021 17:55:36,56975,3,4378930,6100496a0ef6706b8895cbf7,Chrome 91.0.4472.114,reminder,2,SS8,32,Screen 1,response_keyboard,137.39999997615814,1,1,1,0,test_trial,SS8,pred,pet store.png,5,1
29/07/2021 21:55:39,29/07/2021 17:55:36,56975,3,4378930,6100496a0ef6706b8895cbf7,Chrome 91.0.4472.114,reminder,2,SS8,33,Screen 1,response_keyboard,73.5,4,1,1,0,test_trial,SS8,pred,pet store.png,6,4
29/07/2021 21:56:55,29/07/2021 16:56:54,56975,3,4378882,61006ac5b3bd67e87ef4a9fc,Safari 13.1,reminder,2,SS1,20,Screen 1,response_keyboard,660,1,1,1,0,test_trial,SS1,pred,grocery store.png,1,1
29/07/2021 21:56:56,29/07/2021 16:56:56,56975,3,4378882,61006ac5b3bd67e87ef4a9fc,Safari 13.1,reminder,2,SS1,21,Screen 1,response_keyboard,583,4,1,1,0,test_trial,SS1,pred,grocery store.png,2,4
29/07/2021 21:56:57,29/07/2021 16:56:57,56975,3,4378882,61006ac5b3bd67e87ef4a9fc,Safari 13.1,reminder,2,SS1,22,Screen 1,response_keyboard,578,3,1,1,0,test_trial,SS1,pred,grocery store.png,3,3
29/07/2021 21:56:58,29/07/2021 16:56:58,56975,3,4378882,61006ac5b3bd67e87ef4a9fc,Safari 13.1,reminder,2,SS1,23,Screen 1,response_keyboard,791.0000000000073,4,1,1,0,test_trial,SS1,pred,grocery store.png,4,4
29/07/2021 21:56:59,29/07/2021 16:56:59,56975,3,4378882,61006ac5b3bd67e87ef4a9fc,Safari 13.1,reminder,2,SS1,24,Screen 1,response_keyboard,706,2,1,1,0,test_trial,SS1,pred,grocery store.png,5,2
29/07/2021 21:57:01,29/07/2021 16:57:00,56975,3,4378882,61006ac5b3bd67e87ef4a9fc,Safari 13.1,reminder,2,SS1,25,Screen 1,response_keyboard,653,3,1,1,0,test_trial,SS1,pred,grocery store.png,6,3
29/07/2021 21:57:06,29/07/2021 16:57:06,56975,3,4378882,61006ac5b3bd67e87ef4a9fc,Safari 13.1,reminder,2,SS1,28,Screen 1,response_keyboard,841.9999999999927,1,1,1,0,test_trial,SS1,pred,grocery store.png,1,1
29/07/2021 21:57:07,29/07/2021 16:57:07,56975,3,4378882,61006ac5b3bd67e87ef4a9fc,Safari 13.1,reminder,2,SS1,29,Screen 1,response_keyboard,593,4,1,1,0,test_trial,SS1,pred,grocery store.png,2,4
29/07/2021 21:57:08,29/07/2021 16:57:08,56975,3,4378882,61006ac5b3bd67e87ef4a9fc,Safari 13.1,reminder,2,SS1,30,Screen 1,response_keyboard,711,3,1,1,0,test_trial,SS1,pred,grocery store.png,3,3
29/07/2021 21:57:10,29/07/2021 16:57:10,56975,3,4378882,61006ac5b3bd67e87ef4a9fc,Safari 13.1,reminder,2,SS1,31,Screen 1,response_keyboard,672,4,1,1,0,test_trial,SS1,pred,grocery store.png,4,4
29/07/2021 21:57:11,29/07/2021 16:57:11,56975,3,4378882,61006ac5b3bd67e87ef4a9fc,Safari 13.1,reminder,2,SS1,32,Screen 1,response_keyboard,625,2,1,1,0,test_trial,SS1,pred,grocery store.png,5,2
29/07/2021 21:57:12,29/07/2021 16:57:12,56975,3,4378882,61006ac5b3bd67e87ef4a9fc,Safari 13.1,reminder,2,SS1,33,Screen 1,response_keyboard,539,3,1,1,0,test_trial,SS1,pred,grocery store.png,6,3
29/07/2021 21:57:00,29/07/2021 16:57:00,56975,3,4378995,60feef9e0d6f0bd38cf36f97,Safari 14.0.2,reminder,2,SS1,20,Screen 1,response_keyboard,2189,1,1,1,0,test_trial,SS1,pred,grocery store.png,1,1
29/07/2021 21:57:01,29/07/2021 16:57:01,56975,3,4378995,60feef9e0d6f0bd38cf36f97,Safari 14.0.2,reminder,2,SS1,21,Screen 1,response_keyboard,751,4,1,1,0,test_trial,SS1,pred,grocery store.png,2,4
29/07/2021 21:57:02,29/07/2021 16:57:02,56975,3,4378995,60feef9e0d6f0bd38cf36f97,Safari 14.0.2,reminder,2,SS1,22,Screen 1,response_keyboard,535,3,1,1,0,test_trial,SS1,pred,grocery store.png,3,3
29/07/2021 21:57:04,29/07/2021 16:57:03,56975,3,4378995,60feef9e0d6f0bd38cf36f97,Safari 14.0.2,reminder,2,SS1,23,Screen 1,response_keyboard,576,4,1,1,0,test_trial,SS1,pred,grocery store.png,4,4
29/07/2021 21:57:05,29/07/2021 16:57:05,56975,3,4378995,60feef9e0d6f0bd38cf36f97,Safari 14.0.2,reminder,2,SS1,24,Screen 1,response_keyboard,677.0000000000073,2,1,1,0,test_trial,SS1,pred,grocery store.png,5,2
29/07/2021 21:57:06,29/07/2021 16:57:06,56975,3,4378995,60feef9e0d6f0bd38cf36f97,Safari 14.0.2,reminder,2,SS1,25,Screen 1,response_keyboard,457.0000000000073,3,1,1,0,test_trial,SS1,pred,grocery store.png,6,3
29/07/2021 21:57:11,29/07/2021 16:57:11,56975,3,4378995,60feef9e0d6f0bd38cf36f97,Safari 14.0.2,reminder,2,SS1,28,Screen 1,response_keyboard,734,1,1,1,0,test_trial,SS1,pred,grocery store.png,1,1
29/07/2021 21:57:12,29/07/2021 16:57:12,56975,3,4378995,60feef9e0d6f0bd38cf36f97,Safari 14.0.2,reminder,2,SS1,29,Screen 1,response_keyboard,323,4,1,1,0,test_trial,SS1,pred,grocery store.png,2,4
29/07/2021 21:57:13,29/07/2021 16:57:13,56975,3,4378995,60feef9e0d6f0bd38cf36f97,Safari 14.0.2,reminder,2,SS1,30,Screen 1,response_keyboard,286,3,1,1,0,test_trial,SS1,pred,grocery store.png,3,3
29/07/2021 21:57:14,29/07/2021 16:57:13,56975,3,4378995,60feef9e0d6f0bd38cf36f97,Safari 14.0.2,reminder,2,SS1,31,Screen 1,response_keyboard,88,4,1,1,0,test_trial,SS1,pred,grocery store.png,4,4
29/07/2021 21:57:14,29/07/2021 16:57:14,56975,3,4378995,60feef9e0d6f0bd38cf36f97,Safari 14.0.2,reminder,2,SS1,32,Screen 1,response_keyboard,142,2,1,1,0,test_trial,SS1,pred,grocery store.png,5,2
29/07/2021 21:57:15,29/07/2021 16:57:15,56975,3,4378995,60feef9e0d6f0bd38cf36f97,Safari 14.0.2,reminder,2,SS1,33,Screen 1,response_keyboard,81,3,1,1,0,test_trial,SS1,pred,grocery store.png,6,3
29/07/2021 22:00:44,29/07/2021 18:00:44,56975,3,4379022,60fa06e2ce26153bd99e04f0,Firefox 89.0,reminder,2,SS4,20,Screen 1,response_keyboard,989,3,1,1,0,test_trial,SS4,pred,pet store.png,1,3
29/07/2021 22:00:45,29/07/2021 18:00:45,56975,3,4379022,60fa06e2ce26153bd99e04f0,Firefox 89.0,reminder,2,SS4,21,Screen 1,response_keyboard,773,2,1,1,0,test_trial,SS4,pred,pet store.png,2,2
29/07/2021 22:00:47,29/07/2021 18:00:47,56975,3,4379022,60fa06e2ce26153bd99e04f0,Firefox 89.0,reminder,2,SS4,22,Screen 1,response_keyboard,795,4,1,1,0,test_trial,SS4,pred,pet store.png,3,4
29/07/2021 22:00:48,29/07/2021 18:00:48,56975,3,4379022,60fa06e2ce26153bd99e04f0,Firefox 89.0,reminder,2,SS4,23,Screen 1,response_keyboard,308,2,1,1,0,test_trial,SS4,pred,pet store.png,4,2
29/07/2021 22:00:48,29/07/2021 18:00:48,56975,3,4379022,60fa06e2ce26153bd99e04f0,Firefox 89.0,reminder,2,SS4,24,Screen 1,response_keyboard,155,1,1,1,0,test_trial,SS4,pred,pet store.png,5,1
29/07/2021 22:00:49,29/07/2021 18:00:49,56975,3,4379022,60fa06e2ce26153bd99e04f0,Firefox 89.0,reminder,2,SS4,25,Screen 1,response_keyboard,18,4,1,1,0,test_trial,SS4,pred,pet store.png,6,4
29/07/2021 22:00:54,29/07/2021 18:00:54,56975,3,4379022,60fa06e2ce26153bd99e04f0,Firefox 89.0,reminder,2,SS4,28,Screen 1,response_keyboard,418,3,1,1,0,test_trial,SS4,pred,pet store.png,1,3
29/07/2021 22:00:55,29/07/2021 18:00:55,56975,3,4379022,60fa06e2ce26153bd99e04f0,Firefox 89.0,reminder,2,SS4,29,Screen 1,response_keyboard,423,2,1,1,0,test_trial,SS4,pred,pet store.png,2,2
29/07/2021 22:00:56,29/07/2021 18:00:56,56975,3,4379022,60fa06e2ce26153bd99e04f0,Firefox 89.0,reminder,2,SS4,30,Screen 1,response_keyboard,70,4,1,1,0,test_trial,SS4,pred,pet store.png,3,4
29/07/2021 22:00:56,29/07/2021 18:00:56,56975,3,4379022,60fa06e2ce26153bd99e04f0,Firefox 89.0,reminder,2,SS4,31,Screen 1,response_keyboard,3,2,1,1,0,test_trial,SS4,pred,pet store.png,4,2
29/07/2021 22:00:57,29/07/2021 18:00:57,56975,3,4379022,60fa06e2ce26153bd99e04f0,Firefox 89.0,reminder,2,SS4,32,Screen 1,response_keyboard,91,1,1,1,0,test_trial,SS4,pred,pet store.png,5,1
29/07/2021 22:00:58,29/07/2021 18:00:58,56975,3,4379022,60fa06e2ce26153bd99e04f0,Firefox 89.0,reminder,2,SS4,33,Screen 1,response_keyboard,355,4,1,1,0,test_trial,SS4,pred,pet store.png,6,4
29/07/2021 22:08:03,29/07/2021 17:08:03,56975,3,4379018,60ff2abb91918f642ca8cad2,Chrome 92.0.4515.107,reminder,2,SS1,20,Screen 1,response_keyboard,494.7999999523163,1,1,1,0,test_trial,SS1,pred,grocery store.png,1,1
29/07/2021 22:08:04,29/07/2021 17:08:04,56975,3,4379018,60ff2abb91918f642ca8cad2,Chrome 92.0.4515.107,reminder,2,SS1,21,Screen 1,response_keyboard,486.7000000476837,4,1,1,0,test_trial,SS1,pred,grocery store.png,2,4
29/07/2021 22:08:05,29/07/2021 17:08:05,56975,3,4379018,60ff2abb91918f642ca8cad2,Chrome 92.0.4515.107,reminder,2,SS1,22,Screen 1,response_keyboard,429,3,1,1,0,test_trial,SS1,pred,grocery store.png,3,3
29/07/2021 22:08:06,29/07/2021 17:08:06,56975,3,4379018,60ff2abb91918f642ca8cad2,Chrome 92.0.4515.107,reminder,2,SS1,23,Screen 1,response_keyboard,421.5,4,1,1,0,test_trial,SS1,pred,grocery store.png,4,4
29/07/2021 22:08:07,29/07/2021 17:08:06,56975,3,4379018,60ff2abb91918f642ca8cad2,Chrome 92.0.4515.107,reminder,2,SS1,24,Screen 1,response_keyboard,402.2999999523163,2,1,1,0,test_trial,SS1,pred,grocery store.png,5,2
29/07/2021 22:08:08,29/07/2021 17:08:07,56975,3,4379018,60ff2abb91918f642ca8cad2,Chrome 92.0.4515.107,reminder,2,SS1,25,Screen 1,response_keyboard,388,3,1,1,0,test_trial,SS1,pred,grocery store.png,6,3
29/07/2021 22:08:13,29/07/2021 17:08:12,56975,3,4379018,60ff2abb91918f642ca8cad2,Chrome 92.0.4515.107,reminder,2,SS1,28,Screen 1,response_keyboard,367.39999997615814,1,1,1,0,test_trial,SS1,pred,grocery store.png,1,1
29/07/2021 22:08:14,29/07/2021 17:08:13,56975,3,4379018,60ff2abb91918f642ca8cad2,Chrome 92.0.4515.107,reminder,2,SS1,29,Screen 1,response_keyboard,340.10000002384186,4,1,1,0,test_trial,SS1,pred,grocery store.png,2,4
29/07/2021 22:08:15,29/07/2021 17:08:14,56975,3,4379018,60ff2abb91918f642ca8cad2,Chrome 92.0.4515.107,reminder,2,SS1,30,Screen 1,response_keyboard,354.8000000715256,3,1,1,0,test_trial,SS1,pred,grocery store.png,3,3
29/07/2021 22:08:15,29/07/2021 17:08:15,56975,3,4379018,60ff2abb91918f642ca8cad2,Chrome 92.0.4515.107,reminder,2,SS1,31,Screen 1,response_keyboard,400.09999990463257,4,1,1,0,test_trial,SS1,pred,grocery store.png,4,4
29/07/2021 22:08:16,29/07/2021 17:08:16,56975,3,4379018,60ff2abb91918f642ca8cad2,Chrome 92.0.4515.107,reminder,2,SS1,32,Screen 1,response_keyboard,418.2000000476837,2,1,1,0,test_trial,SS1,pred,grocery store.png,5,2
29/07/2021 22:08:17,29/07/2021 17:08:17,56975,3,4379018,60ff2abb91918f642ca8cad2,Chrome 92.0.4515.107,reminder,2,SS1,33,Screen 1,response_keyboard,332.1999999284744,3,1,1,0,test_trial,SS1,pred,grocery store.png,6,3
29/07/2021 22:08:52,29/07/2021 15:08:52,56975,3,4378970,61002caab8bc99b527252504,Safari 14.1,reminder,2,SS2,20,Screen 1,response_keyboard,1565,1,1,1,0,test_trial,SS2,pred,pet store.png,1,1
29/07/2021 22:08:54,29/07/2021 15:08:53,56975,3,4378970,61002caab8bc99b527252504,Safari 14.1,reminder,2,SS2,21,Screen 1,response_keyboard,953,4,1,1,0,test_trial,SS2,pred,pet store.png,2,4
29/07/2021 22:08:54,29/07/2021 15:08:54,56975,3,4378970,61002caab8bc99b527252504,Safari 14.1,reminder,2,SS2,22,Screen 1,response_keyboard,77.00000000000728,3,1,1,0,test_trial,SS2,pred,pet store.png,3,3
29/07/2021 22:08:56,29/07/2021 15:08:56,56975,3,4378970,61002caab8bc99b527252504,Safari 14.1,reminder,2,SS2,23,Screen 1,response_keyboard,1759,4,1,1,0,test_trial,SS2,pred,pet store.png,4,4
29/07/2021 22:08:57,29/07/2021 15:08:57,56975,3,4378970,61002caab8bc99b527252504,Safari 14.1,reminder,2,SS2,24,Screen 1,response_keyboard,485.9999999999927,2,1,1,0,test_trial,SS2,pred,pet store.png,5,2
29/07/2021 22:08:58,29/07/2021 15:08:58,56975,3,4378970,61002caab8bc99b527252504,Safari 14.1,reminder,2,SS2,25,Screen 1,response_keyboard,76,3,1,1,0,test_trial,SS2,pred,pet store.png,6,3
29/07/2021 22:09:04,29/07/2021 15:09:04,56975,3,4378970,61002caab8bc99b527252504,Safari 14.1,reminder,2,SS2,28,Screen 1,response_keyboard,1141.9999999999927,1,1,1,0,test_trial,SS2,pred,pet store.png,1,1
29/07/2021 22:09:06,29/07/2021 15:09:06,56975,3,4378970,61002caab8bc99b527252504,Safari 14.1,reminder,2,SS2,29,Screen 1,response_keyboard,1543,4,1,1,0,test_trial,SS2,pred,pet store.png,2,4
29/07/2021 22:09:08,29/07/2021 15:09:07,56975,3,4378970,61002caab8bc99b527252504,Safari 14.1,reminder,2,SS2,30,Screen 1,response_keyboard,382.0000000000073,3,1,1,0,test_trial,SS2,pred,pet store.png,3,3
29/07/2021 22:09:10,29/07/2021 15:09:10,56975,3,4378970,61002caab8bc99b527252504,Safari 14.1,reminder,2,SS2,31,Screen 1,response_keyboard,2762,4,1,1,0,test_trial,SS2,pred,pet store.png,4,4
29/07/2021 22:09:11,29/07/2021 15:09:11,56975,3,4378970,61002caab8bc99b527252504,Safari 14.1,reminder,2,SS2,32,Screen 1,response_keyboard,455.9999999999927,2,1,1,0,test_trial,SS2,pred,pet store.png,5,2
29/07/2021 22:09:12,29/07/2021 15:09:12,56975,3,4378970,61002caab8bc99b527252504,Safari 14.1,reminder,2,SS2,33,Screen 1,response_keyboard,95,3,1,1,0,test_trial,SS2,pred,pet store.png,6,3
29/07/2021 22:11:35,29/07/2021 18:11:36,56975,3,4379051,60fed38a8adb46e44e0869a5,Chrome 92.0.4515.107,reminder,2,SS6,20,Screen 1,response_keyboard,1343.5,1,1,1,0,test_trial,SS6,pred,pet store.png,1,1
29/07/2021 22:11:37,29/07/2021 18:11:38,56975,3,4379051,60fed38a8adb46e44e0869a5,Chrome 92.0.4515.107,reminder,2,SS6,21,Screen 1,response_keyboard,671.6999999997206,4,1,1,0,test_trial,SS6,pred,pet store.png,2,4
29/07/2021 22:11:38,29/07/2021 18:11:39,56975,3,4379051,60fed38a8adb46e44e0869a5,Chrome 92.0.4515.107,reminder,2,SS6,22,Screen 1,response_keyboard,891.6000000000931,3,1,1,0,test_trial,SS6,pred,pet store.png,3,3
29/07/2021 22:11:39,29/07/2021 18:11:40,56975,3,4379051,60fed38a8adb46e44e0869a5,Chrome 92.0.4515.107,reminder,2,SS6,23,Screen 1,response_keyboard,572,4,1,1,0,test_trial,SS6,pred,pet store.png,4,4
29/07/2021 22:11:41,29/07/2021 18:11:42,56975,3,4379051,60fed38a8adb46e44e0869a5,Chrome 92.0.4515.107,reminder,2,SS6,24,Screen 1,response_keyboard,706.7999999998137,2,1,1,0,test_trial,SS6,pred,pet store.png,5,2
29/07/2021 22:11:42,29/07/2021 18:11:43,56975,3,4379051,60fed38a8adb46e44e0869a5,Chrome 92.0.4515.107,reminder,2,SS6,25,Screen 1,response_keyboard,390.70000000018626,3,1,1,0,test_trial,SS6,pred,pet store.png,6,3
29/07/2021 22:11:47,29/07/2021 18:11:48,56975,3,4379051,60fed38a8adb46e44e0869a5,Chrome 92.0.4515.107,reminder,2,SS6,28,Screen 1,response_keyboard,628.7999999998137,1,1,1,0,test_trial,SS6,pred,pet store.png,1,1
29/07/2021 22:11:48,29/07/2021 18:11:49,56975,3,4379051,60fed38a8adb46e44e0869a5,Chrome 92.0.4515.107,reminder,2,SS6,29,Screen 1,response_keyboard,595.7999999998137,4,1,1,0,test_trial,SS6,pred,pet store.png,2,4
29/07/2021 22:11:49,29/07/2021 18:11:50,56975,3,4379051,60fed38a8adb46e44e0869a5,Chrome 92.0.4515.107,reminder,2,SS6,30,Screen 1,response_keyboard,427.59999999962747,3,1,1,0,test_trial,SS6,pred,pet store.png,3,3
29/07/2021 22:11:51,29/07/2021 18:11:52,56975,3,4379051,60fed38a8adb46e44e0869a5,Chrome 92.0.4515.107,reminder,2,SS6,31,Screen 1,response_keyboard,1421.2000000001863,4,1,1,0,test_trial,SS6,pred,pet store.png,4,4
29/07/2021 22:11:53,29/07/2021 18:11:54,56975,3,4379051,60fed38a8adb46e44e0869a5,Chrome 92.0.4515.107,reminder,2,SS6,32,Screen 1,response_keyboard,1180.4000000003725,2,1,1,0,test_trial,SS6,pred,pet store.png,5,2
29/07/2021 22:11:54,29/07/2021 18:11:55,56975,3,4379051,60fed38a8adb46e44e0869a5,Chrome 92.0.4515.107,reminder,2,SS6,33,Screen 1,response_keyboard,757.9000000003725,4,1,0,0,test_trial,SS6,pred,pet store.png,6,3
30/07/2021 14:21:59,30/07/2021 10:21:59,56975,3,4382111,60fead405d4fefc6731afbcc,Chrome 92.0.4515.107,reminder,2,SS7,20,Screen 1,response_keyboard,1748.800000011921,3,1,1,0,test_trial,SS7,pred,grocery store.png,1,3
30/07/2021 14:22:01,30/07/2021 10:22:01,56975,3,4382111,60fead405d4fefc6731afbcc,Chrome 92.0.4515.107,reminder,2,SS7,21,Screen 1,response_keyboard,1453.2000000476837,2,1,1,0,test_trial,SS7,pred,grocery store.png,2,2
30/07/2021 14:22:02,30/07/2021 10:22:02,56975,3,4382111,60fead405d4fefc6731afbcc,Chrome 92.0.4515.107,reminder,2,SS7,22,Screen 1,response_keyboard,637.5,4,1,1,0,test_trial,SS7,pred,grocery store.png,3,4
30/07/2021 14:22:04,30/07/2021 10:22:04,56975,3,4382111,60fead405d4fefc6731afbcc,Chrome 92.0.4515.107,reminder,2,SS7,23,Screen 1,response_keyboard,872.6999999880791,2,1,1,0,test_trial,SS7,pred,grocery store.png,4,2
30/07/2021 14:22:05,30/07/2021 10:22:05,56975,3,4382111,60fead405d4fefc6731afbcc,Chrome 92.0.4515.107,reminder,2,SS7,24,Screen 1,response_keyboard,736.5999999642372,1,1,1,0,test_trial,SS7,pred,grocery store.png,5,1
30/07/2021 14:22:06,30/07/2021 10:22:06,56975,3,4382111,60fead405d4fefc6731afbcc,Chrome 92.0.4515.107,reminder,2,SS7,25,Screen 1,response_keyboard,779.1000000238419,4,1,1,0,test_trial,SS7,pred,grocery store.png,6,4
30/07/2021 14:22:13,30/07/2021 10:22:13,56975,3,4382111,60fead405d4fefc6731afbcc,Chrome 92.0.4515.107,reminder,2,SS7,28,Screen 1,response_keyboard,2005.5999999642372,3,1,1,0,test_trial,SS7,pred,grocery store.png,1,3
30/07/2021 14:22:14,30/07/2021 10:22:14,56975,3,4382111,60fead405d4fefc6731afbcc,Chrome 92.0.4515.107,reminder,2,SS7,29,Screen 1,response_keyboard,694.8999999761581,2,1,1,0,test_trial,SS7,pred,grocery store.png,2,2
30/07/2021 14:22:15,30/07/2021 10:22:15,56975,3,4382111,60fead405d4fefc6731afbcc,Chrome 92.0.4515.107,reminder,2,SS7,30,Screen 1,response_keyboard,471.80000001192093,4,1,1,0,test_trial,SS7,pred,grocery store.png,3,4
30/07/2021 14:22:17,30/07/2021 10:22:17,56975,3,4382111,60fead405d4fefc6731afbcc,Chrome 92.0.4515.107,reminder,2,SS7,31,Screen 1,response_keyboard,999,2,1,1,0,test_trial,SS7,pred,grocery store.png,4,2
30/07/2021 14:22:18,30/07/2021 10:22:18,56975,3,4382111,60fead405d4fefc6731afbcc,Chrome 92.0.4515.107,reminder,2,SS7,32,Screen 1,response_keyboard,464.5999999642372,1,1,1,0,test_trial,SS7,pred,grocery store.png,5,1
30/07/2021 14:22:19,30/07/2021 10:22:18,56975,3,4382111,60fead405d4fefc6731afbcc,Chrome 92.0.4515.107,reminder,2,SS7,33,Screen 1,response_keyboard,358.80000001192093,4,1,1,0,test_trial,SS7,pred,grocery store.png,6,4
30/07/2021 14:22:32,30/07/2021 10:22:04,56975,3,4382102,61004f2008fa2db433058586,Safari 14.0.3,reminder,2,SS3,20,Screen 1,response_keyboard,763,3,1,1,0,test_trial,SS3,pred,grocery store.png,1,3
30/07/2021 14:22:33,30/07/2021 10:22:05,56975,3,4382102,61004f2008fa2db433058586,Safari 14.0.3,reminder,2,SS3,21,Screen 1,response_keyboard,238,2,1,1,0,test_trial,SS3,pred,grocery store.png,2,2
30/07/2021 14:22:34,30/07/2021 10:22:06,56975,3,4382102,61004f2008fa2db433058586,Safari 14.0.3,reminder,2,SS3,22,Screen 1,response_keyboard,172.00000000000728,4,1,1,0,test_trial,SS3,pred,grocery store.png,3,4
30/07/2021 14:22:34,30/07/2021 10:22:06,56975,3,4382102,61004f2008fa2db433058586,Safari 14.0.3,reminder,2,SS3,23,Screen 1,response_keyboard,3,2,1,1,0,test_trial,SS3,pred,grocery store.png,4,2
30/07/2021 14:22:35,30/07/2021 10:22:07,56975,3,4382102,61004f2008fa2db433058586,Safari 14.0.3,reminder,2,SS3,24,Screen 1,response_keyboard,686,1,1,1,0,test_trial,SS3,pred,grocery store.png,5,1
30/07/2021 14:22:36,30/07/2021 10:22:08,56975,3,4382102,61004f2008fa2db433058586,Safari 14.0.3,reminder,2,SS3,25,Screen 1,response_keyboard,7.000000000007276,4,1,1,0,test_trial,SS3,pred,grocery store.png,6,4
30/07/2021 14:22:41,30/07/2021 10:22:13,56975,3,4382102,61004f2008fa2db433058586,Safari 14.0.3,reminder,2,SS3,28,Screen 1,response_keyboard,535,3,1,1,0,test_trial,SS3,pred,grocery store.png,1,3
30/07/2021 14:22:42,30/07/2021 10:22:14,56975,3,4382102,61004f2008fa2db433058586,Safari 14.0.3,reminder,2,SS3,29,Screen 1,response_keyboard,14.000000000007276,2,1,1,0,test_trial,SS3,pred,grocery store.png,2,2
30/07/2021 14:22:43,30/07/2021 10:22:14,56975,3,4382102,61004f2008fa2db433058586,Safari 14.0.3,reminder,2,SS3,30,Screen 1,response_keyboard,133,4,1,1,0,test_trial,SS3,pred,grocery store.png,3,4
30/07/2021 14:22:43,30/07/2021 10:22:15,56975,3,4382102,61004f2008fa2db433058586,Safari 14.0.3,reminder,2,SS3,31,Screen 1,response_keyboard,33.000000000007276,2,1,1,0,test_trial,SS3,pred,grocery store.png,4,2
30/07/2021 14:22:44,30/07/2021 10:22:16,56975,3,4382102,61004f2008fa2db433058586,Safari 14.0.3,reminder,2,SS3,32,Screen 1,response_keyboard,637,1,1,1,0,test_trial,SS3,pred,grocery store.png,5,1
30/07/2021 14:22:45,30/07/2021 10:22:17,56975,3,4382102,61004f2008fa2db433058586,Safari 14.0.3,reminder,2,SS3,33,Screen 1,response_keyboard,632,4,1,1,0,test_trial,SS3,pred,grocery store.png,6,4
30/07/2021 14:23:01,30/07/2021 11:23:30,56975,3,4382169,60ff36feac69b28ae50fe0f7,Firefox 87.0,reminder,2,SS2,20,Screen 1,response_keyboard,1084,1,1,1,0,test_trial,SS2,pred,pet store.png,1,1
30/07/2021 14:23:02,30/07/2021 11:23:31,56975,3,4382169,60ff36feac69b28ae50fe0f7,Firefox 87.0,reminder,2,SS2,21,Screen 1,response_keyboard,459,4,1,1,0,test_trial,SS2,pred,pet store.png,2,4
30/07/2021 14:23:03,30/07/2021 11:23:32,56975,3,4382169,60ff36feac69b28ae50fe0f7,Firefox 87.0,reminder,2,SS2,22,Screen 1,response_keyboard,288,3,1,1,0,test_trial,SS2,pred,pet store.png,3,3
30/07/2021 14:23:04,30/07/2021 11:23:32,56975,3,4382169,60ff36feac69b28ae50fe0f7,Firefox 87.0,reminder,2,SS2,23,Screen 1,response_keyboard,275,4,1,1,0,test_trial,SS2,pred,pet store.png,4,4
