utc_date,local_date,exp_id,exp_ver,id,prolific_id,browser,task,task_ver,gorilla_counterbalance,trial_row,rt,response,response_bin,confidence,recog_correct,attempt,accuracy,dishonest,display,counterbalance_order,list,quarter,event,event_name,condition,seq_pos,spatial_pos,recog_block,recog_stim,recog_cond
14/07/2021 19:52:51,14/07/2021 15:52:52,56975,3,4265819,60d5d29541e3a5a148be906c,Chrome 91.0.4472.124,recognition,3,SS5,4,1708.8999999985099,def_old,old,high,old,1,1,0,recog_trial,SS5,8,4,3,grocery store.png,pred,4,4,1,guavaB.png,target
14/07/2021 19:52:53,14/07/2021 15:52:54,56975,3,4265819,60d5d29541e3a5a148be906c,Chrome 91.0.4472.124,recognition,3,SS5,5,773.3000000007451,def_old,old,high,old,1,1,0,recog_trial,SS5,6,3,2,grocery store.png,pred,2,4,1,pieB.png,target
14/07/2021 19:52:56,14/07/2021 15:52:56,56975,3,4265819,60d5d29541e3a5a148be906c,Chrome 91.0.4472.124,recognition,3,SS5,6,1661.199999999255,def_new,new,high,new,1,1,0,recog_trial,SS5,5,3,1,grocery store.png,pred,4,4,1,cupcakeA.png,lure
14/07/2021 19:53:01,14/07/2021 15:53:01,56975,3,4265819,60d5d29541e3a5a148be906c,Chrome 91.0.4472.124,recognition,3,SS5,7,3923.400000002235,def_old,old,high,old,1,1,0,recog_trial,SS5,4,2,2,pet store.png,rand,2,1,1,squirrelB.png,target
14/07/2021 19:53:03,14/07/2021 15:53:03,56975,3,4265819,60d5d29541e3a5a148be906c,Chrome 91.0.4472.124,recognition,3,SS5,8,810.7000000029802,def_old,old,high,old,1,1,0,recog_trial,SS5,1,1,2,grocery store.png,pred,5,2,1,celeryB.png,target
14/07/2021 19:53:10,14/07/2021 15:53:10,56975,3,4265819,60d5d29541e3a5a148be906c,Chrome 91.0.4472.124,recognition,3,SS5,9,6359.599999997765,def_new,new,high,new,1,1,0,recog_trial,SS5,7,4,2,pet store.png,rand,1,2,1,donkeyA.png,lure
14/07/2021 19:53:12,14/07/2021 15:53:13,56975,3,4265819,60d5d29541e3a5a148be906c,Chrome 91.0.4472.124,recognition,3,SS5,10,1356.300000000745,def_old,old,high,new,1,0,0,recog_trial,SS5,5,3,3,pet store.png,rand,6,4,1,zebraA.png,lure
14/07/2021 19:53:15,14/07/2021 15:53:15,56975,3,4265819,60d5d29541e3a5a148be906c,Chrome 91.0.4472.124,recognition,3,SS5,11,1606.7000000029802,def_new,new,high,new,1,1,0,recog_trial,SS5,2,1,3,grocery store.png,pred,2,4,1,onionA.png,lure
14/07/2021 19:53:18,14/07/2021 15:53:18,56975,3,4265819,60d5d29541e3a5a148be906c,Chrome 91.0.4472.124,recognition,3,SS5,12,1950,def_new,new,high,new,1,1,0,recog_trial,SS5,6,3,1,pet store.png,rand,5,4,1,canadiangooseA.png,lure
14/07/2021 19:53:20,14/07/2021 15:53:21,56975,3,4265819,60d5d29541e3a5a148be906c,Chrome 91.0.4472.124,recognition,3,SS5,13,1156.9000000022352,def_old,old,high,old,1,1,0,recog_trial,SS5,8,4,3,grocery store.png,pred,3,3,1,cantaloupeB.png,target
14/07/2021 19:53:22,14/07/2021 15:53:22,56975,3,4265819,60d5d29541e3a5a148be906c,Chrome 91.0.4472.124,recognition,3,SS5,14,759.8000000007451,def_old,old,high,old,1,1,0,recog_trial,SS5,6,3,1,pet store.png,rand,3,4,1,grasshopperB.png,target
14/07/2021 19:53:24,14/07/2021 15:53:24,56975,3,4265819,60d5d29541e3a5a148be906c,Chrome 91.0.4472.124,recognition,3,SS5,15,786.8000000007451,def_old,old,high,old,1,1,0,recog_trial,SS5,4,2,2,pet store.png,rand,6,1,1,horseB.png,target
14/07/2021 19:53:26,14/07/2021 15:53:26,56975,3,4265819,60d5d29541e3a5a148be906c,Chrome 91.0.4472.124,recognition,3,SS5,16,1057.800000000745,def_new,new,high,new,1,1,0,recog_trial,SS5,8,4,3,grocery store.png,pred,2,4,1,seaweedA.png,lure
14/07/2021 19:53:28,14/07/2021 15:53:29,56975,3,4265819,60d5d29541e3a5a148be906c,Chrome 91.0.4472.124,recognition,3,SS5,17,1185.3999999985099,def_old,old,high,old,1,1,0,recog_trial,SS5,3,2,4,grocery store.png,pred,3,3,1,gummybearsB.png,target
14/07/2021 19:53:30,14/07/2021 15:53:31,56975,3,4265819,60d5d29541e3a5a148be906c,Chrome 91.0.4472.124,recognition,3,SS5,18,996.3999999985099,def_new,new,high,new,1,1,0,recog_trial,SS5,2,1,3,grocery store.png,pred,3,3,1,mustardA.png,lure
14/07/2021 19:53:32,14/07/2021 15:53:33,56975,3,4265819,60d5d29541e3a5a148be906c,Chrome 91.0.4472.124,recognition,3,SS5,19,1172.5,def_new,new,high,new,1,1,0,recog_trial,SS5,2,1,3,grocery store.png,pred,5,2,1,grapesA.png,lure
14/07/2021 19:53:34,14/07/2021 15:53:35,56975,3,4265819,60d5d29541e3a5a148be906c,Chrome 91.0.4472.124,recognition,3,SS5,20,792,def_new,new,high,new,1,1,0,recog_trial,SS5,3,2,3,pet store.png,rand,3,1,1,dragonflyA.png,lure
14/07/2021 19:53:36,14/07/2021 15:53:36,56975,3,4265819,60d5d29541e3a5a148be906c,Chrome 91.0.4472.124,recognition,3,SS5,21,688.4000000022352,def_new,new,high,new,1,1,0,recog_trial,SS5,4,2,4,grocery store.png,pred,3,3,1,cookedchickenA.png,lure
14/07/2021 19:53:38,14/07/2021 15:53:38,56975,3,4265819,60d5d29541e3a5a148be906c,Chrome 91.0.4472.124,recognition,3,SS5,22,834.1999999992549,def_new,new,high,new,1,1,0,recog_trial,SS5,7,4,1,grocery store.png,pred,4,4,1,granolaA.png,lure
14/07/2021 19:53:40,14/07/2021 15:53:40,56975,3,4265819,60d5d29541e3a5a148be906c,Chrome 91.0.4472.124,recognition,3,SS5,23,731.0999999977648,def_old,old,high,old,1,1,0,recog_trial,SS5,7,4,1,grocery store.png,pred,5,2,1,cabbageB.png,target
14/07/2021 19:53:42,14/07/2021 15:53:42,56975,3,4265819,60d5d29541e3a5a148be906c,Chrome 91.0.4472.124,recognition,3,SS5,24,1310.8999999985099,def_old,old,high,old,1,1,0,recog_trial,SS5,5,3,3,pet store.png,rand,5,2,1,lemurB.png,target
14/07/2021 19:53:44,14/07/2021 15:53:44,56975,3,4265819,60d5d29541e3a5a148be906c,Chrome 91.0.4472.124,recognition,3,SS5,25,808.6000000014901,def_new,new,high,new,1,1,0,recog_trial,SS5,3,2,3,pet store.png,rand,5,4,1,kangarooA.png,lure
14/07/2021 19:53:47,14/07/2021 15:53:48,56975,3,4265819,60d5d29541e3a5a148be906c,Chrome 91.0.4472.124,recognition,3,SS5,26,2561.699999999255,def_old,old,high,old,1,1,0,recog_trial,SS5,2,1,4,pet store.png,rand,3,2,1,hummingbirdB.png,target
14/07/2021 19:53:49,14/07/2021 15:53:50,56975,3,4265819,60d5d29541e3a5a148be906c,Chrome 91.0.4472.124,recognition,3,SS5,27,828.8000000007451,def_new,new,high,old,1,0,0,recog_trial,SS5,1,1,4,pet store.png,rand,2,4,1,turkeyB.png,target
14/07/2021 19:54:01,14/07/2021 15:54:02,56975,3,4265819,60d5d29541e3a5a148be906c,Chrome 91.0.4472.124,recognition,3,SS5,29,2134.60000000149,def_old,old,high,old,1,1,0,recog_trial,SS5,6,3,1,pet store.png,rand,6,1,2,badgerB.png,target
14/07/2021 19:54:03,14/07/2021 15:54:03,56975,3,4265819,60d5d29541e3a5a148be906c,Chrome 91.0.4472.124,recognition,3,SS5,30,857.2999999970198,def_old,old,high,old,1,1,0,recog_trial,SS5,7,4,2,pet store.png,rand,4,4,2,llamaB.png,target
14/07/2021 19:54:05,14/07/2021 15:54:06,56975,3,4265819,60d5d29541e3a5a148be906c,Chrome 91.0.4472.124,recognition,3,SS5,31,1032.199999999255,def_new,new,high,new,1,1,0,recog_trial,SS5,7,4,1,grocery store.png,pred,1,1,2,dumplingsA.png,lure
14/07/2021 19:54:07,14/07/2021 15:54:07,56975,3,4265819,60d5d29541e3a5a148be906c,Chrome 91.0.4472.124,recognition,3,SS5,32,780.6999999992549,def_old,old,high,old,1,1,0,recog_trial,SS5,8,4,1,pet store.png,rand,2,2,2,koalaB.png,target
14/07/2021 19:54:09,14/07/2021 15:54:09,56975,3,4265819,60d5d29541e3a5a148be906c,Chrome 91.0.4472.124,recognition,3,SS5,33,895.1999999992549,def_old,old,high,old,1,1,0,recog_trial,SS5,6,3,2,grocery store.png,pred,4,4,2,strawberriesB.png,target
14/07/2021 19:54:11,14/07/2021 15:54:11,56975,3,4265819,60d5d29541e3a5a148be906c,Chrome 91.0.4472.124,recognition,3,SS5,34,1105.3999999985099,def_new,new,high,new,1,1,0,recog_trial,SS5,4,2,4,grocery store.png,pred,5,2,2,artichokeA.png,lure
14/07/2021 19:54:13,14/07/2021 15:54:13,56975,3,4265819,60d5d29541e3a5a148be906c,Chrome 91.0.4472.124,recognition,3,SS5,35,901.5,def_old,old,high,old,1,1,0,recog_trial,SS5,3,2,4,grocery store.png,pred,2,4,2,garlicB.png,target
14/07/2021 19:54:15,14/07/2021 15:54:15,56975,3,4265819,60d5d29541e3a5a148be906c,Chrome 91.0.4472.124,recognition,3,SS5,36,683.5,def_old,old,high,new,1,0,0,recog_trial,SS5,3,2,4,grocery store.png,pred,4,4,2,pancakesA.png,lure
14/07/2021 19:54:17,14/07/2021 15:54:18,56975,3,4265819,60d5d29541e3a5a148be906c,Chrome 91.0.4472.124,recognition,3,SS5,37,1372.300000000745,def_old,old,high,old,1,1,0,recog_trial,SS5,4,2,4,grocery store.png,pred,6,3,2,croissantB.png,target
14/07/2021 19:54:19,14/07/2021 15:54:20,56975,3,4265819,60d5d29541e3a5a148be906c,Chrome 91.0.4472.124,recognition,3,SS5,38,1285.1000000014901,def_new,new,high,new,1,1,0,recog_trial,SS5,5,3,1,grocery store.png,pred,3,3,2,basilA.png,lure
14/07/2021 19:54:21,14/07/2021 15:54:22,56975,3,4265819,60d5d29541e3a5a148be906c,Chrome 91.0.4472.124,recognition,3,SS5,39,809.8000000007451,def_old,old,high,old,1,1,0,recog_trial,SS5,7,4,1,grocery store.png,pred,6,3,2,blackpepperB.png,target
14/07/2021 19:54:23,14/07/2021 15:54:24,56975,3,4265819,60d5d29541e3a5a148be906c,Chrome 91.0.4472.124,recognition,3,SS5,40,1018.1000000014901,def_old,old,high,old,1,1,0,recog_trial,SS5,5,3,1,grocery store.png,pred,5,2,2,kiwiB.png,target
14/07/2021 19:54:25,14/07/2021 15:54:26,56975,3,4265819,60d5d29541e3a5a148be906c,Chrome 91.0.4472.124,recognition,3,SS5,41,1072.300000000745,def_old,old,high,new,1,0,0,recog_trial,SS5,2,1,4,pet store.png,rand,2,1,2,camelA.png,lure
14/07/2021 19:54:27,14/07/2021 15:54:28,56975,3,4265819,60d5d29541e3a5a148be906c,Chrome 91.0.4472.124,recognition,3,SS5,42,1076.6000000014901,def_new,new,high,new,1,1,0,recog_trial,SS5,1,1,4,pet store.png,rand,3,1,2,tortoiseA.png,lure
14/07/2021 19:54:30,14/07/2021 15:54:30,56975,3,4265819,60d5d29541e3a5a148be906c,Chrome 91.0.4472.124,recognition,3,SS5,43,1004.6999999992549,def_old,old,high,old,1,1,0,recog_trial,SS5,2,1,3,grocery store.png,pred,6,3,2,bagelB.png,target
14/07/2021 19:54:31,14/07/2021 15:54:32,56975,3,4265819,60d5d29541e3a5a148be906c,Chrome 91.0.4472.124,recognition,3,SS5,44,762,def_old,old,high,old,1,1,0,recog_trial,SS5,1,1,2,grocery store.png,pred,3,3,2,avocadoB.png,target
14/07/2021 19:54:35,14/07/2021 15:54:35,56975,3,4265819,60d5d29541e3a5a148be906c,Chrome 91.0.4472.124,recognition,3,SS5,45,2202.599999997765,def_old,old,high,old,1,1,0,recog_trial,SS5,3,2,4,grocery store.png,pred,5,2,2,raspberriesB.png,target
14/07/2021 19:54:37,14/07/2021 15:54:37,56975,3,4265819,60d5d29541e3a5a148be906c,Chrome 91.0.4472.124,recognition,3,SS5,46,942.6999999992549,def_new,new,high,new,1,1,0,recog_trial,SS5,6,3,1,pet store.png,rand,1,2,2,goatA.png,lure
14/07/2021 19:54:38,14/07/2021 15:54:39,56975,3,4265819,60d5d29541e3a5a148be906c,Chrome 91.0.4472.124,recognition,3,SS5,47,861.6000000014901,def_new,new,high,new,1,1,0,recog_trial,SS5,6,3,2,grocery store.png,pred,5,2,2,jalapenoA.png,lure
14/07/2021 19:54:40,14/07/2021 15:54:41,56975,3,4265819,60d5d29541e3a5a148be906c,Chrome 91.0.4472.124,recognition,3,SS5,48,849.9000000022352,def_new,new,high,new,1,1,0,recog_trial,SS5,8,4,3,grocery store.png,pred,5,2,2,hummusA.png,lure
14/07/2021 19:54:44,14/07/2021 15:54:44,56975,3,4265819,60d5d29541e3a5a148be906c,Chrome 91.0.4472.124,recognition,3,SS5,49,2556.699999999255,def_new,new,high,new,1,1,0,recog_trial,SS5,2,1,4,pet store.png,rand,1,3,2,lionA.png,lure
14/07/2021 19:54:46,14/07/2021 15:54:46,56975,3,4265819,60d5d29541e3a5a148be906c,Chrome 91.0.4472.124,recognition,3,SS5,50,875.1000000014901,def_new,new,high,new,1,1,0,recog_trial,SS5,3,2,3,pet store.png,rand,2,3,2,pufferfishA.png,lure
14/07/2021 19:54:48,14/07/2021 15:54:48,56975,3,4265819,60d5d29541e3a5a148be906c,Chrome 91.0.4472.124,recognition,3,SS5,51,908.1999999992549,def_old,old,high,old,1,1,0,recog_trial,SS5,2,1,4,pet store.png,rand,6,2,2,cuttlefishB.png,target
14/07/2021 19:54:50,14/07/2021 15:54:50,56975,3,4265819,60d5d29541e3a5a148be906c,Chrome 91.0.4472.124,recognition,3,SS5,52,989.5,def_new,new,high,new,1,1,0,recog_trial,SS5,8,4,1,pet store.png,rand,4,1,2,owlA.png,lure
14/07/2021 19:54:55,14/07/2021 15:54:56,56975,3,4265819,60d5d29541e3a5a148be906c,Chrome 91.0.4472.124,recognition,3,SS5,54,940.3999999985099,def_old,old,high,old,1,1,0,recog_trial,SS5,5,3,3,pet store.png,rand,4,1,3,pangolinB.png,target
14/07/2021 19:54:57,14/07/2021 15:54:57,56975,3,4265819,60d5d29541e3a5a148be906c,Chrome 91.0.4472.124,recognition,3,SS5,55,869.5,def_new,new,high,old,1,0,0,recog_trial,SS5,8,4,3,grocery store.png,pred,1,1,3,pineappleB.png,target
14/07/2021 19:54:59,14/07/2021 15:54:59,56975,3,4265819,60d5d29541e3a5a148be906c,Chrome 91.0.4472.124,recognition,3,SS5,56,929.6000000014901,def_old,old,high,old,1,1,0,recog_trial,SS5,3,2,3,pet store.png,rand,4,3,3,turtleB.png,target
14/07/2021 19:55:01,14/07/2021 15:55:01,56975,3,4265819,60d5d29541e3a5a148be906c,Chrome 91.0.4472.124,recognition,3,SS5,57,773.9000000022352,def_old,old,high,old,1,1,0,recog_trial,SS5,8,4,1,pet store.png,rand,1,3,3,giraffeB.png,target
14/07/2021 19:55:03,14/07/2021 15:55:03,56975,3,4265819,60d5d29541e3a5a148be906c,Chrome 91.0.4472.124,recognition,3,SS5,58,1010.8000000007451,def_old,old,high,old,1,1,0,recog_trial,SS5,4,2,2,pet store.png,rand,5,3,3,butterflyB.png,target
14/07/2021 19:55:05,14/07/2021 15:55:05,56975,3,4265819,60d5d29541e3a5a148be906c,Chrome 91.0.4472.124,recognition,3,SS5,59,876.3000000007451,def_old,old,high,old,1,1,0,recog_trial,SS5,2,1,3,grocery store.png,pred,4,4,3,popcornB.png,target
14/07/2021 19:55:06,14/07/2021 15:55:07,56975,3,4265819,60d5d29541e3a5a148be906c,Chrome 91.0.4472.124,recognition,3,SS5,60,693.0999999977648,def_new,new,high,old,1,0,0,recog_trial,SS5,1,1,2,grocery store.png,pred,2,4,3,orangeB.png,target
14/07/2021 19:55:08,14/07/2021 15:55:09,56975,3,4265819,60d5d29541e3a5a148be906c,Chrome 91.0.4472.124,recognition,3,SS5,61,884.6000000014901,def_new,new,high,new,1,1,0,recog_trial,SS5,8,4,1,pet store.png,rand,6,2,3,caterpillarA.png,lure
14/07/2021 19:55:10,14/07/2021 15:55:11,56975,3,4265819,60d5d29541e3a5a148be906c,Chrome 91.0.4472.124,recognition,3,SS5,62,806.7999999970198,def_new,new,high,new,1,1,0,recog_trial,SS5,7,4,2,pet store.png,rand,2,3,3,penguinA.png,lure
14/07/2021 19:55:12,14/07/2021 15:55:13,56975,3,4265819,60d5d29541e3a5a148be906c,Chrome 91.0.4472.124,recognition,3,SS5,63,885.8000000007451,def_old,old,high,old,1,1,0,recog_trial,SS5,2,1,4,pet store.png,rand,5,4,3,snailB.png,target
14/07/2021 19:55:14,14/07/2021 15:55:14,56975,3,4265819,60d5d29541e3a5a148be906c,Chrome 91.0.4472.124,recognition,3,SS5,64,833.8999999985099,def_new,new,high,new,1,1,0,recog_trial,SS5,5,3,1,grocery store.png,pred,6,3,3,sandwichA.png,lure
14/07/2021 19:55:16,14/07/2021 15:55:16,56975,3,4265819,60d5d29541e3a5a148be906c,Chrome 91.0.4472.124,recognition,3,SS5,65,724.8999999985099,def_new,new,high,new,1,1,0,recog_trial,SS5,4,2,4,grocery store.png,pred,2,4,3,porkA.png,lure
14/07/2021 19:55:18,14/07/2021 15:55:18,56975,3,4265819,60d5d29541e3a5a148be906c,Chrome 91.0.4472.124,recognition,3,SS5,66,1051.5,def_old,old,high,new,1,0,0,recog_trial,SS5,4,2,2,pet store.png,rand,1,4,3,crocodileA.png,lure
14/07/2021 19:55:20,14/07/2021 15:55:20,56975,3,4265819,60d5d29541e3a5a148be906c,Chrome 91.0.4472.124,recognition,3,SS5,67,964.6999999992549,def_new,new,high,new,1,1,0,recog_trial,SS5,1,1,4,pet store.png,rand,6,4,3,polarbearA.png,lure
14/07/2021 19:55:22,14/07/2021 15:55:22,56975,3,4265819,60d5d29541e3a5a148be906c,Chrome 91.0.4472.124,recognition,3,SS5,68,772.5,def_old,old,high,new,1,0,0,recog_trial,SS5,5,3,3,pet store.png,rand,3,4,3,chickenA.png,lure
14/07/2021 19:55:24,14/07/2021 15:55:24,56975,3,4265819,60d5d29541e3a5a148be906c,Chrome 91.0.4472.124,recognition,3,SS5,69,821.2000000029802,def_old,old,high,old,1,1,0,recog_trial,SS5,4,2,4,grocery store.png,pred,1,1,3,cornB.png,target
14/07/2021 19:55:26,14/07/2021 15:55:27,56975,3,4265819,60d5d29541e3a5a148be906c,Chrome 91.0.4472.124,recognition,3,SS5,70,1773.5,def_old,old,high,new,1,0,0,recog_trial,SS5,6,3,1,pet store.png,rand,4,3,3,rhinoA.png,lure
14/07/2021 19:55:28,14/07/2021 15:55:29,56975,3,4265819,60d5d29541e3a5a148be906c,Chrome 91.0.4472.124,recognition,3,SS5,71,697.6000000014901,def_old,old,high,old,1,1,0,recog_trial,SS5,5,3,3,pet store.png,rand,2,1,3,stingrayB.png,target
14/07/2021 19:55:30,14/07/2021 15:55:31,56975,3,4265819,60d5d29541e3a5a148be906c,Chrome 91.0.4472.124,recognition,3,SS5,72,945.8000000007451,def_new,new,high,new,1,1,0,recog_trial,SS5,1,1,2,grocery store.png,pred,1,1,3,peachesA.png,lure
14/07/2021 19:55:32,14/07/2021 15:55:33,56975,3,4265819,60d5d29541e3a5a148be906c,Chrome 91.0.4472.124,recognition,3,SS5,73,1359.300000000745,def_new,new,high,new,1,1,0,recog_trial,SS5,1,1,4,pet store.png,rand,5,1,3,ostrichA.png,lure
14/07/2021 19:55:34,14/07/2021 15:55:35,56975,3,4265819,60d5d29541e3a5a148be906c,Chrome 91.0.4472.124,recognition,3,SS5,74,718.3999999985099,def_new,new,high,old,1,0,0,recog_trial,SS5,7,4,2,pet store.png,rand,3,1,3,frogB.png,target
14/07/2021 19:55:36,14/07/2021 15:55:36,56975,3,4265819,60d5d29541e3a5a148be906c,Chrome 91.0.4472.124,recognition,3,SS5,75,714.6000000014901,def_new,new,high,new,1,1,0,recog_trial,SS5,3,2,4,grocery store.png,pred,1,1,3,waffleA.png,lure
14/07/2021 19:55:38,14/07/2021 15:55:38,56975,3,4265819,60d5d29541e3a5a148be906c,Chrome 91.0.4472.124,recognition,3,SS5,76,841.7999999970198,def_old,old,high,old,1,1,0,recog_trial,SS5,6,3,2,grocery store.png,pred,6,3,3,nachosB.png,target
14/07/2021 19:55:40,14/07/2021 15:55:40,56975,3,4265819,60d5d29541e3a5a148be906c,Chrome 91.0.4472.124,recognition,3,SS5,77,1115.5,def_new,new,high,new,1,1,0,recog_trial,SS5,8,4,3,grocery store.png,pred,6,3,3,poutineA.png,lure
14/07/2021 19:55:47,14/07/2021 15:55:48,56975,3,4265819,60d5d29541e3a5a148be906c,Chrome 91.0.4472.124,recognition,3,SS5,79,975,def_new,new,high,old,1,0,0,recog_trial,SS5,1,1,4,pet store.png,rand,1,3,4,mantisB.png,target
14/07/2021 19:55:49,14/07/2021 15:55:50,56975,3,4265819,60d5d29541e3a5a148be906c,Chrome 91.0.4472.124,recognition,3,SS5,80,1069.800000000745,def_old,old,high,old,1,1,0,recog_trial,SS5,4,2,2,pet store.png,rand,3,3,4,platypusB.png,target
14/07/2021 19:55:51,14/07/2021 15:55:52,56975,3,4265819,60d5d29541e3a5a148be906c,Chrome 91.0.4472.124,recognition,3,SS5,81,1054.2000000029802,def_old,old,high,old,1,1,0,recog_trial,SS5,8,4,1,pet store.png,rand,5,4,4,walrusB.png,target
14/07/2021 19:55:53,14/07/2021 15:55:54,56975,3,4265819,60d5d29541e3a5a148be906c,Chrome 91.0.4472.124,recognition,3,SS5,82,896.5999999977648,def_new,new,high,new,1,1,0,recog_trial,SS5,6,3,1,pet store.png,rand,2,1,4,tigerA.png,lure
14/07/2021 19:55:55,14/07/2021 15:55:55,56975,3,4265819,60d5d29541e3a5a148be906c,Chrome 91.0.4472.124,recognition,3,SS5,83,709,def_old,old,high,old,1,1,0,recog_trial,SS5,5,3,1,grocery store.png,pred,1,1,4,oliveoilB.png,target
14/07/2021 19:55:57,14/07/2021 15:55:57,56975,3,4265819,60d5d29541e3a5a148be906c,Chrome 91.0.4472.124,recognition,3,SS5,84,579.6000000014901,def_new,new,high,old,1,0,0,recog_trial,SS5,3,2,3,pet store.png,rand,1,2,4,parrotB.png,target
14/07/2021 19:55:58,14/07/2021 15:55:59,56975,3,4265819,60d5d29541e3a5a148be906c,Chrome 91.0.4472.124,recognition,3,SS5,85,657.9000000022352,def_new,new,high,new,1,1,0,recog_trial,SS5,1,1,2,grocery store.png,pred,4,4,4,butterA.png,lure
14/07/2021 19:56:00,14/07/2021 15:56:01,56975,3,4265819,60d5d29541e3a5a148be906c,Chrome 91.0.4472.124,recognition,3,SS5,86,792.5,def_new,new,high,new,1,1,0,recog_trial,SS5,7,4,2,pet store.png,rand,5,1,4,beetleA.png,lure
14/07/2021 19:56:02,14/07/2021 15:56:02,56975,3,4265819,60d5d29541e3a5a148be906c,Chrome 91.0.4472.124,recognition,3,SS5,87,762.6999999992549,def_old,old,high,old,1,1,0,recog_trial,SS5,7,4,1,grocery store.png,pred,2,4,4,dragonfruitB.png,target
14/07/2021 19:56:04,14/07/2021 15:56:04,56975,3,4265819,60d5d29541e3a5a148be906c,Chrome 91.0.4472.124,recognition,3,SS5,88,784.5,def_new,new,high,new,1,1,0,recog_trial,SS5,4,2,2,pet store.png,rand,4,2,4,dolphinA.png,lure
14/07/2021 19:56:05,14/07/2021 15:56:06,56975,3,4265819,60d5d29541e3a5a148be906c,Chrome 91.0.4472.124,recognition,3,SS5,89,771.1999999992549,def_new,new,high,new,1,1,0,recog_trial,SS5,6,3,2,grocery store.png,pred,1,1,4,pretzelA.png,lure
14/07/2021 19:56:07,14/07/2021 15:56:08,56975,3,4265819,60d5d29541e3a5a148be906c,Chrome 91.0.4472.124,recognition,3,SS5,90,826.6000000014901,def_old,old,high,old,1,1,0,recog_trial,SS5,4,2,4,grocery store.png,pred,4,4,4,ramenB.png,target
14/07/2021 19:56:10,14/07/2021 15:56:11,56975,3,4265819,60d5d29541e3a5a148be906c,Chrome 91.0.4472.124,recognition,3,SS5,91,2096.199999999255,def_new,new,high,new,1,1,0,recog_trial,SS5,8,4,1,pet store.png,rand,3,4,4,toadA.png,lure
14/07/2021 19:56:12,14/07/2021 15:56:13,56975,3,4265819,60d5d29541e3a5a148be906c,Chrome 91.0.4472.124,recognition,3,SS5,92,796.3999999985099,def_old,old,high,old,1,1,0,recog_trial,SS5,5,3,3,pet store.png,rand,1,3,4,chameleonB.png,target
14/07/2021 19:56:14,14/07/2021 15:56:15,56975,3,4265819,60d5d29541e3a5a148be906c,Chrome 91.0.4472.124,recognition,3,SS5,93,788.7000000029802,def_old,old,high,new,1,0,0,recog_trial,SS5,7,4,1,grocery store.png,pred,3,3,4,walnutsA.png,lure
14/07/2021 19:56:16,14/07/2021 15:56:16,56975,3,4265819,60d5d29541e3a5a148be906c,Chrome 91.0.4472.124,recognition,3,SS5,94,748.3000000007451,def_new,new,high,new,1,1,0,recog_trial,SS5,1,1,4,pet store.png,rand,4,2,4,bisonA.png,lure
14/07/2021 19:56:18,14/07/2021 15:56:18,56975,3,4265819,60d5d29541e3a5a148be906c,Chrome 91.0.4472.124,recognition,3,SS5,95,822,def_old,old,high,old,1,1,0,recog_trial,SS5,6,3,2,grocery store.png,pred,3,3,4,smoresB.png,target
14/07/2021 19:56:19,14/07/2021 15:56:20,56975,3,4265819,60d5d29541e3a5a148be906c,Chrome 91.0.4472.124,recognition,3,SS5,96,618.3000000007451,def_new,new,high,old,1,0,0,recog_trial,SS5,7,4,2,pet store.png,rand,6,3,4,killerwhaleB.png,target
14/07/2021 19:56:22,14/07/2021 15:56:22,56975,3,4265819,60d5d29541e3a5a148be906c,Chrome 91.0.4472.124,recognition,3,SS5,97,1072.1000000014901,def_new,new,high,new,1,1,0,recog_trial,SS5,3,2,3,pet store.png,rand,6,1,4,batA.png,lure
14/07/2021 19:56:23,14/07/2021 15:56:24,56975,3,4265819,60d5d29541e3a5a148be906c,Chrome 91.0.4472.124,recognition,3,SS5,98,900.5,def_new,new,high,new,1,1,0,recog_trial,SS5,5,3,1,grocery store.png,pred,2,4,4,caramelappleA.png,lure
14/07/2021 19:56:25,14/07/2021 15:56:26,56975,3,4265819,60d5d29541e3a5a148be906c,Chrome 91.0.4472.124,recognition,3,SS5,99,656.5,def_new,new,high,new,1,1,0,recog_trial,SS5,3,2,4,grocery store.png,pred,6,3,4,tomatoA.png,lure
14/07/2021 19:56:27,14/07/2021 15:56:28,56975,3,4265819,60d5d29541e3a5a148be906c,Chrome 91.0.4472.124,recognition,3,SS5,100,814.6999999992549,def_new,new,high,old,1,0,0,recog_trial,SS5,2,1,3,grocery store.png,pred,1,1,4,clamsB.png,target
14/07/2021 19:56:30,14/07/2021 15:56:30,56975,3,4265819,60d5d29541e3a5a148be906c,Chrome 91.0.4472.124,recognition,3,SS5,101,1853.9000000022352,def_new,new,high,new,1,1,0,recog_trial,SS5,1,1,2,grocery store.png,pred,6,3,4,watermelonA.png,lure
14/07/2021 19:56:32,14/07/2021 15:56:32,56975,3,4265819,60d5d29541e3a5a148be906c,Chrome 91.0.4472.124,recognition,3,SS5,102,801.3999999985099,def_old,old,high,old,1,1,0,recog_trial,SS5,2,1,4,pet store.png,rand,4,1,4,snakeB.png,target
14/07/2021 19:53:17,14/07/2021 14:53:25,56975,3,4265656,5e19805e05e1512212e4789a,Firefox 89.0,recognition,3,SS3,4,3593,def_old,old,high,old,1,1,0,recog_trial,SS3,4,2,3,grocery store.png,pred,6,4,1,peachesA.png,target
14/07/2021 19:53:23,14/07/2021 14:53:30,56975,3,4265656,5e19805e05e1512212e4789a,Firefox 89.0,recognition,3,SS3,5,4617,maybe_new,new,low,new,1,1,0,recog_trial,SS3,2,1,4,grocery store.png,pred,3,4,1,ramenB.png,lure
14/07/2021 19:53:25,14/07/2021 14:53:33,56975,3,4265656,5e19805e05e1512212e4789a,Firefox 89.0,recognition,3,SS3,6,1532,def_old,old,high,new,1,0,0,recog_trial,SS3,2,1,4,grocery store.png,pred,6,4,1,honeycombB.png,lure
14/07/2021 19:53:29,14/07/2021 14:53:36,56975,3,4265656,5e19805e05e1512212e4789a,Firefox 89.0,recognition,3,SS3,7,2175,def_new,new,high,new,1,1,0,recog_trial,SS3,8,4,3,grocery store.png,pred,6,4,1,grapesB.png,lure
14/07/2021 19:53:32,14/07/2021 14:53:39,56975,3,4265656,5e19805e05e1512212e4789a,Firefox 89.0,recognition,3,SS3,8,2052,def_new,new,high,new,1,1,0,recog_trial,SS3,5,3,4,grocery store.png,pred,1,3,1,celeryB.png,lure
14/07/2021 19:53:34,14/07/2021 14:53:42,56975,3,4265656,5e19805e05e1512212e4789a,Firefox 89.0,recognition,3,SS3,9,1449,def_new,new,high,new,1,1,0,recog_trial,SS3,3,2,2,grocery store.png,pred,2,2,1,lemonB.png,lure
14/07/2021 19:53:36,14/07/2021 14:53:44,56975,3,4265656,5e19805e05e1512212e4789a,Firefox 89.0,recognition,3,SS3,10,1349,def_old,old,high,new,1,0,0,recog_trial,SS3,3,2,4,pet store.png,rand,6,3,1,squidB.png,lure
14/07/2021 19:53:39,14/07/2021 14:53:46,56975,3,4265656,5e19805e05e1512212e4789a,Firefox 89.0,recognition,3,SS3,11,1153,def_old,old,high,old,1,1,0,recog_trial,SS3,8,4,1,pet store.png,rand,3,3,1,crowA.png,target
14/07/2021 19:53:41,14/07/2021 14:53:49,56975,3,4265656,5e19805e05e1512212e4789a,Firefox 89.0,recognition,3,SS3,12,1736,def_new,new,high,new,1,1,0,recog_trial,SS3,3,2,2,grocery store.png,pred,6,4,1,potatochipsB.png,lure
14/07/2021 19:53:44,14/07/2021 14:53:51,56975,3,4265656,5e19805e05e1512212e4789a,Firefox 89.0,recognition,3,SS3,13,1501,def_new,new,high,new,1,1,0,recog_trial,SS3,7,4,1,grocery store.png,pred,1,3,1,smoresB.png,lure
14/07/2021 19:53:47,14/07/2021 14:53:55,56975,3,4265656,5e19805e05e1512212e4789a,Firefox 89.0,recognition,3,SS3,14,2434,maybe_old,old,low,new,1,0,0,recog_trial,SS3,5,3,2,pet store.png,rand,4,3,1,camelB.png,lure
14/07/2021 19:53:50,14/07/2021 14:53:58,56975,3,4265656,5e19805e05e1512212e4789a,Firefox 89.0,recognition,3,SS3,15,1672,def_old,old,high,old,1,1,0,recog_trial,SS3,1,1,1,grocery store.png,pred,3,4,1,popcornshrimpA.png,target
14/07/2021 19:53:52,14/07/2021 14:54:00,56975,3,4265656,5e19805e05e1512212e4789a,Firefox 89.0,recognition,3,SS3,16,1223,def_old,old,high,old,1,1,0,recog_trial,SS3,6,3,1,pet store.png,rand,2,4,1,vultureA.png,target
14/07/2021 19:53:55,14/07/2021 14:54:03,56975,3,4265656,5e19805e05e1512212e4789a,Firefox 89.0,recognition,3,SS3,17,1892,def_old,old,high,old,1,1,0,recog_trial,SS3,2,1,4,grocery store.png,pred,4,2,1,cookiesA.png,target
14/07/2021 19:53:58,14/07/2021 14:54:05,56975,3,4265656,5e19805e05e1512212e4789a,Firefox 89.0,recognition,3,SS3,18,1595,def_old,old,high,old,1,1,0,recog_trial,SS3,3,2,2,grocery store.png,pred,1,3,1,tomatoA.png,target
14/07/2021 19:54:01,14/07/2021 14:54:08,56975,3,4265656,5e19805e05e1512212e4789a,Firefox 89.0,recognition,3,SS3,19,1988,def_new,new,high,new,1,1,0,recog_trial,SS3,8,4,1,pet store.png,rand,5,2,1,mantisB.png,lure
14/07/2021 19:54:03,14/07/2021 14:54:11,56975,3,4265656,5e19805e05e1512212e4789a,Firefox 89.0,recognition,3,SS3,20,1591,def_new,new,high,new,1,1,0,recog_trial,SS3,5,3,4,grocery store.png,pred,4,2,1,jalapenoB.png,lure
14/07/2021 19:54:06,14/07/2021 14:54:13,56975,3,4265656,5e19805e05e1512212e4789a,Firefox 89.0,recognition,3,SS3,21,1306,def_old,old,high,old,1,1,0,recog_trial,SS3,5,3,4,grocery store.png,pred,5,1,1,starfruitA.png,target
14/07/2021 19:54:09,14/07/2021 14:54:17,56975,3,4265656,5e19805e05e1512212e4789a,Firefox 89.0,recognition,3,SS3,22,2402,maybe_new,new,low,new,1,1,0,recog_trial,SS3,2,1,3,pet store.png,rand,3,3,1,donkeyB.png,lure
14/07/2021 19:54:12,14/07/2021 14:54:19,56975,3,4265656,5e19805e05e1512212e4789a,Firefox 89.0,recognition,3,SS3,23,1597,maybe_new,new,low,old,1,0,0,recog_trial,SS3,5,3,2,pet store.png,rand,6,1,1,batA.png,target
14/07/2021 19:54:14,14/07/2021 14:54:22,56975,3,4265656,5e19805e05e1512212e4789a,Firefox 89.0,recognition,3,SS3,24,1372,def_old,old,high,old,1,1,0,recog_trial,SS3,4,2,4,pet store.png,rand,5,3,1,koalaA.png,target
14/07/2021 19:54:16,14/07/2021 14:54:24,56975,3,4265656,5e19805e05e1512212e4789a,Firefox 89.0,recognition,3,SS3,25,1239,def_old,old,high,old,1,1,0,recog_trial,SS3,7,4,1,grocery store.png,pred,6,4,1,pizzaA.png,target
14/07/2021 19:54:20,14/07/2021 14:54:27,56975,3,4265656,5e19805e05e1512212e4789a,Firefox 89.0,recognition,3,SS3,26,2517,maybe_new,new,low,old,1,0,0,recog_trial,SS3,8,4,1,pet store.png,rand,2,2,1,hippoA.png,target
14/07/2021 19:54:24,14/07/2021 14:54:31,56975,3,4265656,5e19805e05e1512212e4789a,Firefox 89.0,recognition,3,SS3,27,2835,maybe_old,old,low,old,1,1,0,recog_trial,SS3,1,1,2,pet store.png,rand,5,1,1,wolfA.png,target
14/07/2021 19:54:32,14/07/2021 14:54:40,56975,3,4265656,5e19805e05e1512212e4789a,Firefox 89.0,recognition,3,SS3,29,2857,def_new,new,high,new,1,1,0,recog_trial,SS3,3,2,2,grocery store.png,pred,3,4,2,cherriesB.png,lure
14/07/2021 19:54:37,14/07/2021 14:54:44,56975,3,4265656,5e19805e05e1512212e4789a,Firefox 89.0,recognition,3,SS3,30,3762,maybe_new,new,low,new,1,1,0,recog_trial,SS3,6,3,2,grocery store.png,pred,3,4,2,cinnamonB.png,lure
14/07/2021 19:54:40,14/07/2021 14:54:47,56975,3,4265656,5e19805e05e1512212e4789a,Firefox 89.0,recognition,3,SS3,31,1940,def_new,new,high,old,1,0,0,recog_trial,SS3,2,1,3,pet store.png,rand,4,4,2,hermitcrabA.png,target
14/07/2021 19:54:44,14/07/2021 14:54:52,56975,3,4265656,5e19805e05e1512212e4789a,Firefox 89.0,recognition,3,SS3,32,3227,def_old,old,high,old,1,1,0,recog_trial,SS3,7,4,1,grocery store.png,pred,4,2,2,chocolatemilkA.png,target
14/07/2021 19:54:48,14/07/2021 14:54:56,56975,3,4265656,5e19805e05e1512212e4789a,Firefox 89.0,recognition,3,SS3,33,3258,maybe_old,old,low,old,1,1,0,recog_trial,SS3,6,3,2,grocery store.png,pred,4,2,2,watermelonA.png,target
14/07/2021 19:54:51,14/07/2021 14:54:58,56975,3,4265656,5e19805e05e1512212e4789a,Firefox 89.0,recognition,3,SS3,34,1508,def_old,old,high,old,1,1,0,recog_trial,SS3,7,4,1,grocery store.png,pred,3,4,2,seaweedA.png,target
14/07/2021 19:54:54,14/07/2021 14:55:01,56975,3,4265656,5e19805e05e1512212e4789a,Firefox 89.0,recognition,3,SS3,35,1984,maybe_new,new,low,old,1,0,0,recog_trial,SS3,1,1,1,grocery store.png,pred,2,2,2,orangeA.png,target
14/07/2021 19:54:57,14/07/2021 14:55:04,56975,3,4265656,5e19805e05e1512212e4789a,Firefox 89.0,recognition,3,SS3,36,1918,def_old,old,high,old,1,1,0,recog_trial,SS3,4,2,4,pet store.png,rand,4,4,2,manateeA.png,target
14/07/2021 19:55:00,14/07/2021 14:55:07,56975,3,4265656,5e19805e05e1512212e4789a,Firefox 89.0,recognition,3,SS3,37,2066,maybe_old,old,low,old,1,1,0,recog_trial,SS3,8,4,1,pet store.png,rand,1,4,2,cuttlefishA.png,target
14/07/2021 19:55:02,14/07/2021 14:55:10,56975,3,4265656,5e19805e05e1512212e4789a,Firefox 89.0,recognition,3,SS3,38,1277,def_old,old,high,old,1,1,0,recog_trial,SS3,2,1,4,grocery store.png,pred,1,3,2,cakeA.png,target
14/07/2021 19:55:04,14/07/2021 14:55:12,56975,3,4265656,5e19805e05e1512212e4789a,Firefox 89.0,recognition,3,SS3,39,1201,def_old,old,high,old,1,1,0,recog_trial,SS3,4,2,4,pet store.png,rand,6,1,2,polarbearA.png,target
14/07/2021 19:55:07,14/07/2021 14:55:15,56975,3,4265656,5e19805e05e1512212e4789a,Firefox 89.0,recognition,3,SS3,40,1869,def_old,old,high,new,1,0,0,recog_trial,SS3,7,4,3,pet store.png,rand,3,2,2,pugB.png,lure
14/07/2021 19:55:10,14/07/2021 14:55:18,56975,3,4265656,5e19805e05e1512212e4789a,Firefox 89.0,recognition,3,SS3,41,2203,def_new,new,high,new,1,1,0,recog_trial,SS3,1,1,2,pet store.png,rand,1,2,2,sheepB.png,lure
14/07/2021 19:55:13,14/07/2021 14:55:21,56975,3,4265656,5e19805e05e1512212e4789a,Firefox 89.0,recognition,3,SS3,42,1631,def_old,old,high,old,1,1,0,recog_trial,SS3,5,3,4,grocery store.png,pred,6,4,2,caramelappleA.png,target
14/07/2021 19:55:16,14/07/2021 14:55:24,56975,3,4265656,5e19805e05e1512212e4789a,Firefox 89.0,recognition,3,SS3,43,2067,maybe_old,old,low,new,1,0,0,recog_trial,SS3,4,2,3,grocery store.png,pred,1,3,2,cupcakeB.png,lure
14/07/2021 19:55:19,14/07/2021 14:55:26,56975,3,4265656,5e19805e05e1512212e4789a,Firefox 89.0,recognition,3,SS3,44,1698,def_old,old,high,new,1,0,0,recog_trial,SS3,1,1,1,grocery store.png,pred,1,3,2,cupnoodleB.png,lure
14/07/2021 19:55:21,14/07/2021 14:55:29,56975,3,4265656,5e19805e05e1512212e4789a,Firefox 89.0,recognition,3,SS3,45,1619,maybe_new,new,low,new,1,1,0,recog_trial,SS3,2,1,3,pet store.png,rand,6,4,2,platypusB.png,lure
14/07/2021 19:55:24,14/07/2021 14:55:32,56975,3,4265656,5e19805e05e1512212e4789a,Firefox 89.0,recognition,3,SS3,46,1554,def_old,old,high,old,1,1,0,recog_trial,SS3,5,3,4,grocery store.png,pred,3,4,2,guavaA.png,target
14/07/2021 19:55:26,14/07/2021 14:55:34,56975,3,4265656,5e19805e05e1512212e4789a,Firefox 89.0,recognition,3,SS3,47,1299,def_old,old,high,new,1,0,0,recog_trial,SS3,6,3,1,pet store.png,rand,6,3,2,crabB.png,lure
14/07/2021 19:55:29,14/07/2021 14:55:37,56975,3,4265656,5e19805e05e1512212e4789a,Firefox 89.0,recognition,3,SS3,48,2082,maybe_new,new,low,new,1,1,0,recog_trial,SS3,4,2,3,grocery store.png,pred,5,1,2,icecreamsandwichB.png,lure
14/07/2021 19:55:33,14/07/2021 14:55:40,56975,3,4265656,5e19805e05e1512212e4789a,Firefox 89.0,recognition,3,SS3,49,2176,def_old,old,high,old,1,1,0,recog_trial,SS3,4,2,4,pet store.png,rand,1,2,2,turtleA.png,target
14/07/2021 19:55:36,14/07/2021 14:55:43,56975,3,4265656,5e19805e05e1512212e4789a,Firefox 89.0,recognition,3,SS3,50,1942,def_new,new,high,new,1,1,0,recog_trial,SS3,6,3,2,grocery store.png,pred,6,4,2,hummusB.png,lure
14/07/2021 19:55:40,14/07/2021 14:55:47,56975,3,4265656,5e19805e05e1512212e4789a,Firefox 89.0,recognition,3,SS3,51,3006,maybe_old,old,low,new,1,0,0,recog_trial,SS3,7,4,3,pet store.png,rand,2,3,2,cardinalB.png,lure
14/07/2021 19:55:42,14/07/2021 14:55:50,56975,3,4265656,5e19805e05e1512212e4789a,Firefox 89.0,recognition,3,SS3,52,1823,maybe_new,new,low,new,1,1,0,recog_trial,SS3,7,4,3,pet store.png,rand,1,1,2,tigerB.png,lure
14/07/2021 19:56:52,14/07/2021 14:57:00,56975,3,4265656,5e19805e05e1512212e4789a,Firefox 89.0,recognition,3,SS3,54,5597,maybe_old,old,low,new,1,0,0,recog_trial,SS3,6,3,2,grocery store.png,pred,5,1,3,raspberriesB.png,lure
14/07/2021 19:56:57,14/07/2021 14:57:04,56975,3,4265656,5e19805e05e1512212e4789a,Firefox 89.0,recognition,3,SS3,55,3707,maybe_new,new,low,old,1,0,0,recog_trial,SS3,1,1,2,pet store.png,rand,6,4,3,killerwhaleA.png,target
14/07/2021 19:56:59,14/07/2021 14:57:07,56975,3,4265656,5e19805e05e1512212e4789a,Firefox 89.0,recognition,3,SS3,56,1549,def_old,old,high,old,1,1,0,recog_trial,SS3,6,3,1,pet store.png,rand,4,3,3,iguanaA.png,target
14/07/2021 19:57:02,14/07/2021 14:57:10,56975,3,4265656,5e19805e05e1512212e4789a,Firefox 89.0,recognition,3,SS3,57,1995,maybe_new,new,low,new,1,1,0,recog_trial,SS3,2,1,3,pet store.png,rand,5,1,3,frogB.png,lure
14/07/2021 19:57:04,14/07/2021 14:57:12,56975,3,4265656,5e19805e05e1512212e4789a,Firefox 89.0,recognition,3,SS3,58,1180,def_old,old,high,old,1,1,0,recog_trial,SS3,7,4,3,pet store.png,rand,5,2,3,squirrelA.png,target
14/07/2021 19:57:07,14/07/2021 14:57:14,56975,3,4265656,5e19805e05e1512212e4789a,Firefox 89.0,recognition,3,SS3,59,1270,def_old,old,high,old,1,1,0,recog_trial,SS3,8,4,3,grocery store.png,pred,5,1,3,croissantA.png,target
14/07/2021 19:57:10,14/07/2021 14:57:17,56975,3,4265656,5e19805e05e1512212e4789a,Firefox 89.0,recognition,3,SS3,60,2019,maybe_old,old,low,old,1,1,0,recog_trial,SS3,4,2,3,grocery store.png,pred,2,2,3,tacoA.png,target
14/07/2021 19:57:14,14/07/2021 14:57:22,56975,3,4265656,5e19805e05e1512212e4789a,Firefox 89.0,recognition,3,SS3,61,3477,maybe_new,new,low,new,1,1,0,recog_trial,SS3,2,1,4,grocery store.png,pred,5,1,3,blackpepperB.png,lure
14/07/2021 19:57:17,14/07/2021 14:57:24,56975,3,4265656,5e19805e05e1512212e4789a,Firefox 89.0,recognition,3,SS3,62,1329,maybe_new,new,low,new,1,1,0,recog_trial,SS3,3,2,4,pet store.png,rand,4,3,3,lionB.png,lure
14/07/2021 19:57:20,14/07/2021 14:57:27,56975,3,4265656,5e19805e05e1512212e4789a,Firefox 89.0,recognition,3,SS3,63,1905,maybe_old,old,low,new,1,0,0,recog_trial,SS3,7,4,3,pet store.png,rand,6,3,3,owlB.png,lure
14/07/2021 19:57:23,14/07/2021 14:57:31,56975,3,4265656,5e19805e05e1512212e4789a,Firefox 89.0,recognition,3,SS3,64,2429,def_old,old,high,old,1,1,0,recog_trial,SS3,8,4,1,pet store.png,rand,6,1,3,badgerA.png,target
14/07/2021 19:57:26,14/07/2021 14:57:33,56975,3,4265656,5e19805e05e1512212e4789a,Firefox 89.0,recognition,3,SS3,65,1570,def_old,old,high,new,1,0,0,recog_trial,SS3,6,3,1,pet store.png,rand,1,2,3,gooseB.png,lure
14/07/2021 19:57:27,14/07/2021 14:57:35,56975,3,4265656,5e19805e05e1512212e4789a,Firefox 89.0,recognition,3,SS3,66,875,def_old,old,high,old,1,1,0,recog_trial,SS3,1,1,1,grocery store.png,pred,5,1,3,pretzelA.png,target
14/07/2021 19:57:31,14/07/2021 14:57:39,56975,3,4265656,5e19805e05e1512212e4789a,Firefox 89.0,recognition,3,SS3,67,2481,maybe_new,new,low,new,1,1,0,recog_trial,SS3,2,1,4,grocery store.png,pred,2,2,3,eggB.png,lure
14/07/2021 19:57:34,14/07/2021 14:57:42,56975,3,4265656,5e19805e05e1512212e4789a,Firefox 89.0,recognition,3,SS3,68,2513,maybe_old,old,low,old,1,1,0,recog_trial,SS3,3,2,2,grocery store.png,pred,5,1,3,cerealA.png,target
14/07/2021 19:57:37,14/07/2021 14:57:44,56975,3,4265656,5e19805e05e1512212e4789a,Firefox 89.0,recognition,3,SS3,69,1370,maybe_old,old,low,old,1,1,0,recog_trial,SS3,6,3,1,pet store.png,rand,3,1,3,pigA.png,target
14/07/2021 19:57:40,14/07/2021 14:57:48,56975,3,4265656,5e19805e05e1512212e4789a,Firefox 89.0,recognition,3,SS3,70,2126,def_old,old,high,new,1,0,0,recog_trial,SS3,3,2,4,pet store.png,rand,1,4,3,pandaB.png,lure
14/07/2021 19:57:42,14/07/2021 14:57:50,56975,3,4265656,5e19805e05e1512212e4789a,Firefox 89.0,recognition,3,SS3,71,1374,def_old,old,high,old,1,1,0,recog_trial,SS3,4,2,3,grocery store.png,pred,3,4,3,avocadoA.png,target
14/07/2021 19:57:46,14/07/2021 14:57:54,56975,3,4265656,5e19805e05e1512212e4789a,Firefox 89.0,recognition,3,SS3,72,2791,def_new,new,high,new,1,1,0,recog_trial,SS3,5,3,4,grocery store.png,pred,2,2,3,poutineB.png,lure
14/07/2021 19:57:49,14/07/2021 14:57:57,56975,3,4265656,5e19805e05e1512212e4789a,Firefox 89.0,recognition,3,SS3,73,1795,maybe_old,old,low,old,1,1,0,recog_trial,SS3,5,3,2,pet store.png,rand,1,2,3,ladybugA.png,target
14/07/2021 19:57:52,14/07/2021 14:58:00,56975,3,4265656,5e19805e05e1512212e4789a,Firefox 89.0,recognition,3,SS3,74,2296,maybe_old,old,low,new,1,0,0,recog_trial,SS3,8,4,3,grocery store.png,pred,3,4,3,gummybearsB.png,lure
14/07/2021 19:57:56,14/07/2021 14:58:04,56975,3,4265656,5e19805e05e1512212e4789a,Firefox 89.0,recognition,3,SS3,75,2583,maybe_new,new,low,old,1,0,0,recog_trial,SS3,1,1,1,grocery store.png,pred,6,4,3,bakedpotatoA.png,target
14/07/2021 19:57:59,14/07/2021 14:58:07,56975,3,4265656,5e19805e05e1512212e4789a,Firefox 89.0,recognition,3,SS3,76,2343,maybe_old,old,low,new,1,0,0,recog_trial,SS3,8,4,1,pet store.png,rand,4,1,3,emuB.png,lure
14/07/2021 19:58:04,14/07/2021 14:58:12,56975,3,4265656,5e19805e05e1512212e4789a,Firefox 89.0,recognition,3,SS3,77,3777,maybe_old,old,low,new,1,0,0,recog_trial,SS3,3,2,4,pet store.png,rand,5,2,3,chickenB.png,lure
14/07/2021 19:58:10,14/07/2021 14:58:18,56975,3,4265656,5e19805e05e1512212e4789a,Firefox 89.0,recognition,3,SS3,79,2400,maybe_new,new,low,new,1,1,0,recog_trial,SS3,7,4,1,grocery store.png,pred,5,1,4,cantaloupeB.png,lure
14/07/2021 19:58:13,14/07/2021 14:58:20,56975,3,4265656,5e19805e05e1512212e4789a,Firefox 89.0,recognition,3,SS3,80,1275,maybe_new,new,low,old,1,0,0,recog_trial,SS3,3,2,4,pet store.png,rand,3,1,4,chameleonA.png,target
14/07/2021 19:58:16,14/07/2021 14:58:23,56975,3,4265656,5e19805e05e1512212e4789a,Firefox 89.0,recognition,3,SS3,81,2026,maybe_old,old,low,new,1,0,0,recog_trial,SS3,8,4,3,grocery store.png,pred,2,2,4,saladB.png,lure
14/07/2021 19:58:19,14/07/2021 14:58:26,56975,3,4265656,5e19805e05e1512212e4789a,Firefox 89.0,recognition,3,SS3,82,2151,maybe_old,old,low,old,1,1,0,recog_trial,SS3,7,4,3,pet store.png,rand,4,4,4,ostrichA.png,target
14/07/2021 19:58:22,14/07/2021 14:58:29,56975,3,4265656,5e19805e05e1512212e4789a,Firefox 89.0,recognition,3,SS3,83,1860,maybe_new,new,low,new,1,1,0,recog_trial,SS3,3,2,4,pet store.png,rand,2,2,4,pelicanB.png,lure
14/07/2021 19:58:25,14/07/2021 14:58:32,56975,3,4265656,5e19805e05e1512212e4789a,Firefox 89.0,recognition,3,SS3,84,1909,def_old,old,high,old,1,1,0,recog_trial,SS3,4,2,3,grocery store.png,pred,4,2,4,granolaA.png,target
14/07/2021 19:58:27,14/07/2021 14:58:35,56975,3,4265656,5e19805e05e1512212e4789a,Firefox 89.0,recognition,3,SS3,85,1941,def_new,new,high,new,1,1,0,recog_trial,SS3,5,3,2,pet store.png,rand,5,4,4,grasshopperB.png,lure
14/07/2021 19:58:32,14/07/2021 14:58:39,56975,3,4265656,5e19805e05e1512212e4789a,Firefox 89.0,recognition,3,SS3,86,3215,maybe_old,old,low,new,1,0,0,recog_trial,SS3,1,1,1,grocery store.png,pred,4,2,4,basilB.png,lure
14/07/2021 19:58:35,14/07/2021 14:58:42,56975,3,4265656,5e19805e05e1512212e4789a,Firefox 89.0,recognition,3,SS3,87,1999,def_old,old,high,old,1,1,0,recog_trial,SS3,6,3,2,grocery store.png,pred,1,3,4,riceA.png,target
14/07/2021 19:58:38,14/07/2021 14:58:46,56975,3,4265656,5e19805e05e1512212e4789a,Firefox 89.0,recognition,3,SS3,88,2451,maybe_old,old,low,old,1,1,0,recog_trial,SS3,1,1,2,pet store.png,rand,3,1,4,pantherA.png,target
14/07/2021 19:58:40,14/07/2021 14:58:48,56975,3,4265656,5e19805e05e1512212e4789a,Firefox 89.0,recognition,3,SS3,89,1328,maybe_new,new,low,new,1,1,0,recog_trial,SS3,2,1,3,pet store.png,rand,2,1,4,seahorseB.png,lure
14/07/2021 19:58:43,14/07/2021 14:58:51,56975,3,4265656,5e19805e05e1512212e4789a,Firefox 89.0,recognition,3,SS3,90,1776,maybe_old,old,low,new,1,0,0,recog_trial,SS3,1,1,2,pet store.png,rand,4,3,4,ferretB.png,lure
14/07/2021 19:58:46,14/07/2021 14:58:54,56975,3,4265656,5e19805e05e1512212e4789a,Firefox 89.0,recognition,3,SS3,91,1794,def_new,new,high,new,1,1,0,recog_trial,SS3,8,4,3,grocery store.png,pred,4,2,4,edamameB.png,lure
14/07/2021 19:58:49,14/07/2021 14:58:56,56975,3,4265656,5e19805e05e1512212e4789a,Firefox 89.0,recognition,3,SS3,92,1663,def_old,old,high,old,1,1,0,recog_trial,SS3,6,3,1,pet store.png,rand,5,4,4,surgeonfishA.png,target
14/07/2021 19:58:51,14/07/2021 14:58:59,56975,3,4265656,5e19805e05e1512212e4789a,Firefox 89.0,recognition,3,SS3,93,1406,def_old,old,high,old,1,1,0,recog_trial,SS3,8,4,3,grocery store.png,pred,1,3,4,bagelA.png,target
14/07/2021 19:58:55,14/07/2021 14:59:02,56975,3,4265656,5e19805e05e1512212e4789a,Firefox 89.0,recognition,3,SS3,94,2442,def_old,old,high,old,1,1,0,recog_trial,SS3,6,3,2,grocery store.png,pred,2,2,4,baconA.png,target
14/07/2021 19:58:57,14/07/2021 14:59:05,56975,3,4265656,5e19805e05e1512212e4789a,Firefox 89.0,recognition,3,SS3,95,1493,def_old,old,high,old,1,1,0,recog_trial,SS3,1,1,2,pet store.png,rand,2,4,4,giraffeA.png,target
14/07/2021 19:59:00,14/07/2021 14:59:08,56975,3,4265656,5e19805e05e1512212e4789a,Firefox 89.0,recognition,3,SS3,96,2102,maybe_new,new,low,new,1,1,0,recog_trial,SS3,3,2,2,grocery store.png,pred,4,2,4,kiwiB.png,lure
14/07/2021 19:59:03,14/07/2021 14:59:10,56975,3,4265656,5e19805e05e1512212e4789a,Firefox 89.0,recognition,3,SS3,97,1613,maybe_old,old,low,new,1,0,0,recog_trial,SS3,5,3,2,pet store.png,rand,2,1,4,parrotB.png,lure
14/07/2021 19:59:05,14/07/2021 14:59:13,56975,3,4265656,5e19805e05e1512212e4789a,Firefox 89.0,recognition,3,SS3,98,1183,def_old,old,high,old,1,1,0,recog_trial,SS3,7,4,1,grocery store.png,pred,2,2,4,acaibowlA.png,target
14/07/2021 19:59:08,14/07/2021 14:59:16,56975,3,4265656,5e19805e05e1512212e4789a,Firefox 89.0,recognition,3,SS3,99,1958,def_new,new,high,new,1,1,0,recog_trial,SS3,4,2,4,pet store.png,rand,3,3,4,llamaB.png,lure
14/07/2021 19:59:13,14/07/2021 14:59:20,56975,3,4265656,5e19805e05e1512212e4789a,Firefox 89.0,recognition,3,SS3,100,3776,maybe_old,old,low,new,1,0,0,recog_trial,SS3,5,3,2,pet store.png,rand,3,4,4,whaleB.png,lure
14/07/2021 19:59:15,14/07/2021 14:59:23,56975,3,4265656,5e19805e05e1512212e4789a,Firefox 89.0,recognition,3,SS3,101,1501,def_old,old,high,old,1,1,0,recog_trial,SS3,2,1,3,pet store.png,rand,1,2,4,chimpA.png,target
14/07/2021 19:59:18,14/07/2021 14:59:26,56975,3,4265656,5e19805e05e1512212e4789a,Firefox 89.0,recognition,3,SS3,102,1620,def_old,old,high,old,1,1,0,recog_trial,SS3,4,2,4,pet store.png,rand,2,1,4,rhinoA.png,target
19/07/2021 19:54:48,19/07/2021 15:54:47,56975,3,4297756,60edf5baeda27703883525c6,Chrome 91.0.4472.124,recognition,3,SS4,4,2624.0999999940395,def_new,new,high,new,1,1,0,recog_trial,SS4,1,1,4,pet store.png,pred,1,3,1,bearB.png,lure
19/07/2021 19:54:50,19/07/2021 15:54:49,56975,3,4297756,60edf5baeda27703883525c6,Chrome 91.0.4472.124,recognition,3,SS4,5,1369.300000011921,def_new,new,high,new,1,1,0,recog_trial,SS4,5,3,2,grocery store.png,rand,3,3,1,breadB.png,lure
19/07/2021 19:54:52,19/07/2021 15:54:51,56975,3,4297756,60edf5baeda27703883525c6,Chrome 91.0.4472.124,recognition,3,SS4,6,822,def_new,new,high,old,1,0,0,recog_trial,SS4,1,1,4,pet store.png,pred,2,2,1,cuttlefishA.png,target
19/07/2021 19:54:55,19/07/2021 15:54:54,56975,3,4297756,60edf5baeda27703883525c6,Chrome 91.0.4472.124,recognition,3,SS4,7,1726.5999999940395,def_new,new,high,new,1,1,0,recog_trial,SS4,3,2,3,grocery store.png,rand,3,3,1,artichokeB.png,lure
19/07/2021 19:54:57,19/07/2021 15:54:56,56975,3,4297756,60edf5baeda27703883525c6,Chrome 91.0.4472.124,recognition,3,SS4,8,758.4000000059605,def_new,new,high,old,1,0,0,recog_trial,SS4,1,1,3,grocery store.png,rand,1,2,1,milkA.png,target
19/07/2021 19:54:59,19/07/2021 15:54:58,56975,3,4297756,60edf5baeda27703883525c6,Chrome 91.0.4472.124,recognition,3,SS4,9,1291.800000011921,def_new,new,high,new,1,1,0,recog_trial,SS4,7,4,3,pet store.png,pred,6,4,1,dolphinB.png,lure
19/07/2021 19:55:01,19/07/2021 15:55:00,56975,3,4297756,60edf5baeda27703883525c6,Chrome 91.0.4472.124,recognition,3,SS4,10,921.4000000059605,def_new,new,high,new,1,1,0,recog_trial,SS4,2,1,2,pet store.png,pred,2,2,1,lemurB.png,lure
19/07/2021 19:55:03,19/07/2021 15:55:02,56975,3,4297756,60edf5baeda27703883525c6,Chrome 91.0.4472.124,recognition,3,SS4,11,970.0999999940395,def_new,new,high,new,1,1,0,recog_trial,SS4,6,3,4,pet store.png,pred,4,2,1,parrotB.png,lure
19/07/2021 19:55:05,19/07/2021 15:55:04,56975,3,4297756,60edf5baeda27703883525c6,Chrome 91.0.4472.124,recognition,3,SS4,12,877,def_new,new,high,old,1,0,0,recog_trial,SS4,2,1,1,grocery store.png,rand,4,1,1,seaweedA.png,target
19/07/2021 19:55:07,19/07/2021 15:55:06,56975,3,4297756,60edf5baeda27703883525c6,Chrome 91.0.4472.124,recognition,3,SS4,13,946.1999999880791,def_new,new,high,old,1,0,0,recog_trial,SS4,4,2,2,pet store.png,pred,3,4,1,whaleA.png,target
19/07/2021 19:55:11,19/07/2021 15:55:10,56975,3,4297756,60edf5baeda27703883525c6,Chrome 91.0.4472.124,recognition,3,SS4,14,3042.9000000059605,maybe_old,old,low,old,1,1,0,recog_trial,SS4,5,3,2,grocery store.png,rand,6,3,1,garlicA.png,target
19/07/2021 19:55:13,19/07/2021 15:55:12,56975,3,4297756,60edf5baeda27703883525c6,Chrome 91.0.4472.124,recognition,3,SS4,15,1192.4000000059605,maybe_old,old,low,old,1,1,0,recog_trial,SS4,6,3,4,pet store.png,pred,3,4,1,goldenretrieverA.png,target
19/07/2021 19:55:15,19/07/2021 15:55:14,56975,3,4297756,60edf5baeda27703883525c6,Chrome 91.0.4472.124,recognition,3,SS4,16,899.7999999821186,maybe_old,old,low,old,1,1,0,recog_trial,SS4,7,4,3,pet store.png,pred,5,1,1,sheepA.png,target
19/07/2021 19:55:17,19/07/2021 15:55:17,56975,3,4297756,60edf5baeda27703883525c6,Chrome 91.0.4472.124,recognition,3,SS4,17,1102.5999999940395,def_new,new,high,old,1,0,0,recog_trial,SS4,3,2,1,pet store.png,pred,1,3,1,pufferfishA.png,target
19/07/2021 19:55:20,19/07/2021 15:55:20,56975,3,4297756,60edf5baeda27703883525c6,Chrome 91.0.4472.124,recognition,3,SS4,18,1930.800000011921,maybe_new,new,low,old,1,0,0,recog_trial,SS4,7,4,4,grocery store.png,rand,6,4,1,beetA.png,target
19/07/2021 19:55:23,19/07/2021 15:55:22,56975,3,4297756,60edf5baeda27703883525c6,Chrome 91.0.4472.124,recognition,3,SS4,19,1955,def_old,old,high,new,1,0,0,recog_trial,SS4,1,1,3,grocery store.png,rand,2,1,1,gummybearsB.png,lure
19/07/2021 19:55:25,19/07/2021 15:55:24,56975,3,4297756,60edf5baeda27703883525c6,Chrome 91.0.4472.124,recognition,3,SS4,20,942.3000000119209,def_old,old,high,old,1,1,0,recog_trial,SS4,4,2,4,grocery store.png,rand,6,1,1,granolaA.png,target
19/07/2021 19:55:27,19/07/2021 15:55:26,56975,3,4297756,60edf5baeda27703883525c6,Chrome 91.0.4472.124,recognition,3,SS4,21,863.3000000119209,def_old,old,high,old,1,1,0,recog_trial,SS4,7,4,4,grocery store.png,rand,1,2,1,caramelappleA.png,target
19/07/2021 19:55:31,19/07/2021 15:55:30,56975,3,4297756,60edf5baeda27703883525c6,Chrome 91.0.4472.124,recognition,3,SS4,22,2195.4000000059605,maybe_old,old,low,new,1,0,0,recog_trial,SS4,3,2,3,grocery store.png,rand,1,4,1,starfruitB.png,lure
19/07/2021 19:55:33,19/07/2021 15:55:32,56975,3,4297756,60edf5baeda27703883525c6,Chrome 91.0.4472.124,recognition,3,SS4,23,958.6999999880791,def_old,old,high,new,1,0,0,recog_trial,SS4,3,2,3,grocery store.png,rand,5,2,1,orangeB.png,lure
19/07/2021 19:55:35,19/07/2021 15:55:34,56975,3,4297756,60edf5baeda27703883525c6,Chrome 91.0.4472.124,recognition,3,SS4,24,1710,def_new,new,high,new,1,1,0,recog_trial,SS4,8,4,1,grocery store.png,rand,6,4,1,cerealB.png,lure
19/07/2021 19:55:38,19/07/2021 15:55:37,56975,3,4297756,60edf5baeda27703883525c6,Chrome 91.0.4472.124,recognition,3,SS4,25,1386.800000011921,def_old,old,high,new,1,0,0,recog_trial,SS4,6,3,4,pet store.png,pred,5,1,1,lionB.png,lure
19/07/2021 19:55:41,19/07/2021 15:55:40,56975,3,4297756,60edf5baeda27703883525c6,Chrome 91.0.4472.124,recognition,3,SS4,26,2319.2000000178814,def_new,new,high,new,1,1,0,recog_trial,SS4,7,4,4,grocery store.png,rand,2,3,1,burgerB.png,lure
19/07/2021 19:55:44,19/07/2021 15:55:43,56975,3,4297756,60edf5baeda27703883525c6,Chrome 91.0.4472.124,recognition,3,SS4,27,1622.9000000059605,def_old,old,high,old,1,1,0,recog_trial,SS4,6,3,2,grocery store.png,rand,4,3,1,walnutsA.png,target
19/07/2021 19:55:52,19/07/2021 15:55:51,56975,3,4297756,60edf5baeda27703883525c6,Chrome 91.0.4472.124,recognition,3,SS4,29,3339.9000000059605,def_old,old,high,new,1,0,0,recog_trial,SS4,5,3,2,grocery store.png,rand,4,4,2,mushroomsB.png,lure
19/07/2021 19:55:55,19/07/2021 15:55:55,56975,3,4297756,60edf5baeda27703883525c6,Chrome 91.0.4472.124,recognition,3,SS4,30,2540.5,def_old,old,high,old,1,1,0,recog_trial,SS4,4,2,2,pet store.png,pred,2,2,2,foxA.png,target
19/07/2021 19:55:58,19/07/2021 15:55:57,56975,3,4297756,60edf5baeda27703883525c6,Chrome 91.0.4472.124,recognition,3,SS4,31,1563.800000011921,def_new,new,high,new,1,1,0,recog_trial,SS4,5,3,1,pet store.png,pred,3,4,2,cowB.png,lure
19/07/2021 19:56:02,19/07/2021 15:56:01,56975,3,4297756,60edf5baeda27703883525c6,Chrome 91.0.4472.124,recognition,3,SS4,32,2486.100000023842,maybe_old,old,low,new,1,0,0,recog_trial,SS4,3,2,3,grocery store.png,rand,2,2,2,dragonfruitB.png,lure
19/07/2021 19:56:05,19/07/2021 15:56:04,56975,3,4297756,60edf5baeda27703883525c6,Chrome 91.0.4472.124,recognition,3,SS4,33,1867.9000000059605,def_old,old,high,new,1,0,0,recog_trial,SS4,2,1,2,pet store.png,pred,3,4,2,surgeonfishB.png,lure
19/07/2021 19:56:06,19/07/2021 15:56:05,56975,3,4297756,60edf5baeda27703883525c6,Chrome 91.0.4472.124,recognition,3,SS4,34,841.5,def_old,old,high,old,1,1,0,recog_trial,SS4,4,2,4,grocery store.png,rand,4,3,2,poutineA.png,target
19/07/2021 19:56:08,19/07/2021 15:56:08,56975,3,4297756,60edf5baeda27703883525c6,Chrome 91.0.4472.124,recognition,3,SS4,35,1015.0999999940395,def_new,new,high,old,1,0,0,recog_trial,SS4,1,1,4,pet store.png,pred,3,4,2,platypusA.png,target
19/07/2021 19:56:13,19/07/2021 15:56:12,56975,3,4297756,60edf5baeda27703883525c6,Chrome 91.0.4472.124,recognition,3,SS4,36,3177.5,maybe_old,old,low,new,1,0,0,recog_trial,SS4,8,4,1,grocery store.png,rand,1,2,2,coconutB.png,lure
19/07/2021 19:56:16,19/07/2021 15:56:15,56975,3,4297756,60edf5baeda27703883525c6,Chrome 91.0.4472.124,recognition,3,SS4,37,2399.4000000059605,maybe_old,old,low,old,1,1,0,recog_trial,SS4,8,4,3,pet store.png,pred,3,4,2,hippoA.png,target
19/07/2021 19:56:18,19/07/2021 15:56:18,56975,3,4297756,60edf5baeda27703883525c6,Chrome 91.0.4472.124,recognition,3,SS4,38,1365.4000000059605,def_old,old,high,new,1,0,0,recog_trial,SS4,7,4,3,pet store.png,pred,3,4,2,donkeyB.png,lure
19/07/2021 19:56:20,19/07/2021 15:56:20,56975,3,4297756,60edf5baeda27703883525c6,Chrome 91.0.4472.124,recognition,3,SS4,39,886.1999999880791,def_old,old,high,old,1,1,0,recog_trial,SS4,6,3,2,grocery store.png,rand,2,4,2,edamameA.png,target
19/07/2021 19:56:22,19/07/2021 15:56:21,56975,3,4297756,60edf5baeda27703883525c6,Chrome 91.0.4472.124,recognition,3,SS4,40,722.7000000178814,def_old,old,high,old,1,1,0,recog_trial,SS4,2,1,1,grocery store.png,rand,3,3,2,avocadoA.png,target
19/07/2021 19:56:25,19/07/2021 15:56:24,56975,3,4297756,60edf5baeda27703883525c6,Chrome 91.0.4472.124,recognition,3,SS4,41,1284.5,def_new,new,high,new,1,1,0,recog_trial,SS4,3,2,3,grocery store.png,rand,6,1,2,pizzaB.png,lure
19/07/2021 19:56:27,19/07/2021 15:56:26,56975,3,4297756,60edf5baeda27703883525c6,Chrome 91.0.4472.124,recognition,3,SS4,42,961,def_old,old,high,old,1,1,0,recog_trial,SS4,8,4,3,pet store.png,pred,6,4,2,giraffeA.png,target
19/07/2021 19:56:28,19/07/2021 15:56:27,56975,3,4297756,60edf5baeda27703883525c6,Chrome 91.0.4472.124,recognition,3,SS4,43,800.1999999880791,def_old,old,high,old,1,1,0,recog_trial,SS4,8,4,1,grocery store.png,rand,2,4,2,strawberriesA.png,target
19/07/2021 19:56:30,19/07/2021 15:56:29,56975,3,4297756,60edf5baeda27703883525c6,Chrome 91.0.4472.124,recognition,3,SS4,44,825.2999999821186,def_old,old,high,new,1,0,0,recog_trial,SS4,6,3,2,grocery store.png,rand,1,2,2,broccoliB.png,lure
19/07/2021 19:56:32,19/07/2021 15:56:31,56975,3,4297756,60edf5baeda27703883525c6,Chrome 91.0.4472.124,recognition,3,SS4,45,883.5999999940395,def_new,new,high,new,1,1,0,recog_trial,SS4,2,1,1,grocery store.png,rand,5,4,2,cantaloupeB.png,lure
19/07/2021 19:56:38,19/07/2021 15:56:37,56975,3,4297756,60edf5baeda27703883525c6,Chrome 91.0.4472.124,recognition,3,SS4,46,5176.4000000059605,def_old,old,high,old,1,1,0,recog_trial,SS4,6,3,2,grocery store.png,rand,3,1,2,bellpeppersA.png,target
19/07/2021 19:56:42,19/07/2021 15:56:41,56975,3,4297756,60edf5baeda27703883525c6,Chrome 91.0.4472.124,recognition,3,SS4,47,2130.0999999940395,def_old,old,high,new,1,0,0,recog_trial,SS4,3,2,3,grocery store.png,rand,4,1,2,croissantB.png,lure
19/07/2021 19:56:44,19/07/2021 15:56:43,56975,3,4297756,60edf5baeda27703883525c6,Chrome 91.0.4472.124,recognition,3,SS4,48,1351.9000000059605,def_new,new,high,new,1,1,0,recog_trial,SS4,1,1,4,pet store.png,pred,5,1,2,boarB.png,lure
19/07/2021 19:56:46,19/07/2021 15:56:46,56975,3,4297756,60edf5baeda27703883525c6,Chrome 91.0.4472.124,recognition,3,SS4,49,1496.5999999940395,def_new,new,high,old,1,0,0,recog_trial,SS4,1,1,4,pet store.png,pred,4,2,2,eagleA.png,target
19/07/2021 19:56:49,19/07/2021 15:56:49,56975,3,4297756,60edf5baeda27703883525c6,Chrome 91.0.4472.124,recognition,3,SS4,50,1948.5999999940395,maybe_new,new,low,old,1,0,0,recog_trial,SS4,5,3,1,pet store.png,pred,1,3,2,emuA.png,target
19/07/2021 19:56:52,19/07/2021 15:56:51,56975,3,4297756,60edf5baeda27703883525c6,Chrome 91.0.4472.124,recognition,3,SS4,51,1498,def_old,old,high,new,1,0,0,recog_trial,SS4,8,4,1,grocery store.png,rand,4,3,2,ravioliB.png,lure
19/07/2021 19:56:55,19/07/2021 15:56:54,56975,3,4297756,60edf5baeda27703883525c6,Chrome 91.0.4472.124,recognition,3,SS4,52,1928.9000000059605,def_old,old,high,old,1,1,0,recog_trial,SS4,4,2,4,grocery store.png,rand,2,3,2,bakedpotatoA.png,target
19/07/2021 19:57:15,19/07/2021 15:57:15,56975,3,4297756,60edf5baeda27703883525c6,Chrome 91.0.4472.124,recognition,3,SS4,54,2945.9000000059605,def_new,new,high,new,1,1,0,recog_trial,SS4,5,3,2,grocery store.png,rand,5,1,3,hotdogB.png,lure
19/07/2021 19:57:18,19/07/2021 15:57:17,56975,3,4297756,60edf5baeda27703883525c6,Chrome 91.0.4472.124,recognition,3,SS4,55,1333.2000000178814,def_old,old,high,new,1,0,0,recog_trial,SS4,4,2,2,pet store.png,pred,6,4,3,crowB.png,lure
19/07/2021 19:57:20,19/07/2021 15:57:19,56975,3,4297756,60edf5baeda27703883525c6,Chrome 91.0.4472.124,recognition,3,SS4,56,994.7000000178814,def_old,old,high,old,1,1,0,recog_trial,SS4,5,3,2,grocery store.png,rand,1,2,3,oliveoilA.png,target
19/07/2021 19:57:22,19/07/2021 15:57:21,56975,3,4297756,60edf5baeda27703883525c6,Chrome 91.0.4472.124,recognition,3,SS4,57,1276.800000011921,def_old,old,high,new,1,0,0,recog_trial,SS4,1,1,3,grocery store.png,rand,3,3,3,basilB.png,lure
19/07/2021 19:57:24,19/07/2021 15:57:23,56975,3,4297756,60edf5baeda27703883525c6,Chrome 91.0.4472.124,recognition,3,SS4,58,789.3999999761581,def_new,new,high,old,1,0,0,recog_trial,SS4,1,1,4,pet store.png,pred,6,4,3,manateeA.png,target
19/07/2021 19:57:26,19/07/2021 15:57:25,56975,3,4297756,60edf5baeda27703883525c6,Chrome 91.0.4472.124,recognition,3,SS4,59,1406.7000000178814,def_new,new,high,new,1,1,0,recog_trial,SS4,1,1,3,grocery store.png,rand,6,1,3,mustardB.png,lure
19/07/2021 19:57:29,19/07/2021 15:57:28,56975,3,4297756,60edf5baeda27703883525c6,Chrome 91.0.4472.124,recognition,3,SS4,60,1175.3999999761581,def_old,old,high,new,1,0,0,recog_trial,SS4,8,4,3,pet store.png,pred,5,1,3,turkeyB.png,lure
19/07/2021 19:57:31,19/07/2021 15:57:30,56975,3,4297756,60edf5baeda27703883525c6,Chrome 91.0.4472.124,recognition,3,SS4,61,1592.4000000059605,def_new,new,high,new,1,1,0,recog_trial,SS4,2,1,1,grocery store.png,rand,1,2,3,cookedchickenB.png,lure
19/07/2021 19:57:33,19/07/2021 15:57:32,56975,3,4297756,60edf5baeda27703883525c6,Chrome 91.0.4472.124,recognition,3,SS4,62,911.6999999880791,def_old,old,high,old,1,1,0,recog_trial,SS4,1,1,3,grocery store.png,rand,5,3,3,celeryA.png,target
19/07/2021 19:57:36,19/07/2021 15:57:35,56975,3,4297756,60edf5baeda27703883525c6,Chrome 91.0.4472.124,recognition,3,SS4,63,1373.199999988079,def_new,new,high,old,1,0,0,recog_trial,SS4,2,1,2,pet store.png,pred,5,1,3,pugA.png,target
19/07/2021 19:57:39,19/07/2021 15:57:38,56975,3,4297756,60edf5baeda27703883525c6,Chrome 91.0.4472.124,recognition,3,SS4,64,1957.9000000059605,def_new,new,high,new,1,1,0,recog_trial,SS4,6,3,4,pet store.png,pred,2,2,3,dragonflyB.png,lure
19/07/2021 19:57:41,19/07/2021 15:57:40,56975,3,4297756,60edf5baeda27703883525c6,Chrome 91.0.4472.124,recognition,3,SS4,65,1167.7999999821186,def_new,new,high,old,1,0,0,recog_trial,SS4,8,4,3,pet store.png,pred,2,2,3,pigA.png,target
19/07/2021 19:57:43,19/07/2021 15:57:42,56975,3,4297756,60edf5baeda27703883525c6,Chrome 91.0.4472.124,recognition,3,SS4,66,793,def_old,old,high,old,1,1,0,recog_trial,SS4,5,3,1,pet store.png,pred,4,2,3,camelA.png,target
19/07/2021 19:57:45,19/07/2021 15:57:44,56975,3,4297756,60edf5baeda27703883525c6,Chrome 91.0.4472.124,recognition,3,SS4,67,1430.300000011921,def_new,new,high,new,1,1,0,recog_trial,SS4,7,4,4,grocery store.png,rand,5,3,3,cupcakeB.png,lure
19/07/2021 19:57:47,19/07/2021 15:57:46,56975,3,4297756,60edf5baeda27703883525c6,Chrome 91.0.4472.124,recognition,3,SS4,68,897.0999999940395,def_old,old,high,old,1,1,0,recog_trial,SS4,7,4,4,grocery store.png,rand,4,4,3,cookiesA.png,target
19/07/2021 19:57:49,19/07/2021 15:57:48,56975,3,4297756,60edf5baeda27703883525c6,Chrome 91.0.4472.124,recognition,3,SS4,69,867.6000000238419,maybe_new,new,low,old,1,0,0,recog_trial,SS4,5,3,1,pet store.png,pred,5,1,3,canadiangooseA.png,target
19/07/2021 19:57:51,19/07/2021 15:57:50,56975,3,4297756,60edf5baeda27703883525c6,Chrome 91.0.4472.124,recognition,3,SS4,70,1246.1000000238419,def_old,old,high,old,1,1,0,recog_trial,SS4,4,2,2,pet store.png,pred,4,2,3,zebraA.png,target
19/07/2021 19:57:53,19/07/2021 15:57:52,56975,3,4297756,60edf5baeda27703883525c6,Chrome 91.0.4472.124,recognition,3,SS4,71,988,def_old,old,high,old,1,1,0,recog_trial,SS4,7,4,3,pet store.png,pred,4,2,3,toucanA.png,target
19/07/2021 19:57:55,19/07/2021 15:57:54,56975,3,4297756,60edf5baeda27703883525c6,Chrome 91.0.4472.124,recognition,3,SS4,72,893.6999999880791,def_old,old,high,new,1,0,0,recog_trial,SS4,5,3,1,pet store.png,pred,6,4,3,squirrelB.png,lure
19/07/2021 19:57:57,19/07/2021 15:57:56,56975,3,4297756,60edf5baeda27703883525c6,Chrome 91.0.4472.124,recognition,3,SS4,73,896.0999999940395,def_old,old,high,old,1,1,0,recog_trial,SS4,3,2,1,pet store.png,pred,6,4,3,vultureA.png,target
19/07/2021 19:57:59,19/07/2021 15:57:58,56975,3,4297756,60edf5baeda27703883525c6,Chrome 91.0.4472.124,recognition,3,SS4,74,936.6999999880791,def_old,old,high,new,1,0,0,recog_trial,SS4,7,4,3,pet store.png,pred,2,2,3,llamaB.png,lure
19/07/2021 19:58:01,19/07/2021 15:58:00,56975,3,4297756,60edf5baeda27703883525c6,Chrome 91.0.4472.124,recognition,3,SS4,75,1210.4000000059605,def_new,new,high,new,1,1,0,recog_trial,SS4,3,2,1,pet store.png,pred,4,2,3,ostrichB.png,lure
19/07/2021 19:58:03,19/07/2021 15:58:03,56975,3,4297756,60edf5baeda27703883525c6,Chrome 91.0.4472.124,recognition,3,SS4,76,1009.2000000178814,def_old,old,high,new,1,0,0,recog_trial,SS4,3,2,1,pet store.png,pred,2,2,3,mantisB.png,lure
19/07/2021 19:58:06,19/07/2021 15:58:05,56975,3,4297756,60edf5baeda27703883525c6,Chrome 91.0.4472.124,recognition,3,SS4,77,1244.5999999940395,def_old,old,high,old,1,1,0,recog_trial,SS4,4,2,2,pet store.png,pred,5,1,3,killerwhaleA.png,target
19/07/2021 19:58:11,19/07/2021 15:58:10,56975,3,4297756,60edf5baeda27703883525c6,Chrome 91.0.4472.124,recognition,3,SS4,79,1277,def_old,old,high,new,1,0,0,recog_trial,SS4,3,2,1,pet store.png,pred,5,1,4,koalaB.png,lure
19/07/2021 19:58:13,19/07/2021 15:58:12,56975,3,4297756,60edf5baeda27703883525c6,Chrome 91.0.4472.124,recognition,3,SS4,80,790.5999999940395,def_new,new,high,new,1,1,0,recog_trial,SS4,3,2,1,pet store.png,pred,3,4,4,badgerB.png,lure
19/07/2021 19:58:15,19/07/2021 15:58:15,56975,3,4297756,60edf5baeda27703883525c6,Chrome 91.0.4472.124,recognition,3,SS4,81,1516.5,def_old,old,high,old,1,1,0,recog_trial,SS4,6,3,2,grocery store.png,rand,5,4,4,cupnoodleA.png,target
19/07/2021 19:58:18,19/07/2021 15:58:17,56975,3,4297756,60edf5baeda27703883525c6,Chrome 91.0.4472.124,recognition,3,SS4,82,1403.5,def_old,old,high,new,1,0,0,recog_trial,SS4,7,4,3,pet store.png,pred,1,3,4,deerB.png,lure
19/07/2021 19:58:21,19/07/2021 15:58:20,56975,3,4297756,60edf5baeda27703883525c6,Chrome 91.0.4472.124,recognition,3,SS4,83,2212.0999999940395,def_new,new,high,new,1,1,0,recog_trial,SS4,8,4,3,pet store.png,pred,4,2,4,toadB.png,lure
19/07/2021 19:58:23,19/07/2021 15:58:22,56975,3,4297756,60edf5baeda27703883525c6,Chrome 91.0.4472.124,recognition,3,SS4,84,1024.300000011921,def_new,new,high,old,1,0,0,recog_trial,SS4,4,2,4,grocery store.png,rand,3,1,4,clamsA.png,target
19/07/2021 19:58:25,19/07/2021 15:58:24,56975,3,4297756,60edf5baeda27703883525c6,Chrome 91.0.4472.124,recognition,3,SS4,85,660.0999999940395,def_old,old,high,old,1,1,0,recog_trial,SS4,4,2,4,grocery store.png,rand,1,2,4,peachesA.png,target
19/07/2021 19:58:27,19/07/2021 15:58:26,56975,3,4297756,60edf5baeda27703883525c6,Chrome 91.0.4472.124,recognition,3,SS4,86,664,def_old,old,high,old,1,1,0,recog_trial,SS4,2,1,2,pet store.png,pred,1,3,4,penguinA.png,target
19/07/2021 19:58:30,19/07/2021 15:58:29,56975,3,4297756,60edf5baeda27703883525c6,Chrome 91.0.4472.124,recognition,3,SS4,87,2286,def_new,new,high,old,1,0,0,recog_trial,SS4,8,4,1,grocery store.png,rand,5,1,4,cheeseA.png,target
19/07/2021 19:58:33,19/07/2021 15:58:32,56975,3,4297756,60edf5baeda27703883525c6,Chrome 91.0.4472.124,recognition,3,SS4,88,1491.699999988079,def_old,old,high,new,1,0,0,recog_trial,SS4,2,1,2,pet store.png,pred,4,2,4,chameleonB.png,lure
19/07/2021 19:58:36,19/07/2021 15:58:35,56975,3,4297756,60edf5baeda27703883525c6,Chrome 91.0.4472.124,recognition,3,SS4,89,2562.4000000059605,def_old,old,high,old,1,1,0,recog_trial,SS4,8,4,3,pet store.png,pred,1,3,4,bloodhoundA.png,target
19/07/2021 19:58:38,19/07/2021 15:58:37,56975,3,4297756,60edf5baeda27703883525c6,Chrome 91.0.4472.124,recognition,3,SS4,90,874.1999999880791,def_new,new,high,new,1,1,0,recog_trial,SS4,2,1,2,pet store.png,pred,6,4,4,pelicanB.png,lure
19/07/2021 19:58:40,19/07/2021 15:58:39,56975,3,4297756,60edf5baeda27703883525c6,Chrome 91.0.4472.124,recognition,3,SS4,91,657.2999999821186,def_old,old,high,new,1,0,0,recog_trial,SS4,7,4,4,grocery store.png,rand,3,1,4,asparagusB.png,lure
19/07/2021 19:58:42,19/07/2021 15:58:41,56975,3,4297756,60edf5baeda27703883525c6,Chrome 91.0.4472.124,recognition,3,SS4,92,867,def_new,new,high,old,1,0,0,recog_trial,SS4,8,4,1,grocery store.png,rand,3,1,4,baconA.png,target
19/07/2021 19:58:44,19/07/2021 15:58:43,56975,3,4297756,60edf5baeda27703883525c6,Chrome 91.0.4472.124,recognition,3,SS4,93,890.9000000059605,def_old,old,high,old,1,1,0,recog_trial,SS4,4,2,4,grocery store.png,rand,5,4,4,cakeA.png,target
19/07/2021 19:58:45,19/07/2021 15:58:45,56975,3,4297756,60edf5baeda27703883525c6,Chrome 91.0.4472.124,recognition,3,SS4,94,919,def_new,new,high,old,1,0,0,recog_trial,SS4,5,3,1,pet store.png,pred,2,2,4,armadilloA.png,target
19/07/2021 19:58:48,19/07/2021 15:58:47,56975,3,4297756,60edf5baeda27703883525c6,Chrome 91.0.4472.124,recognition,3,SS4,95,1182.5999999940395,def_old,old,high,new,1,0,0,recog_trial,SS4,4,2,2,pet store.png,pred,1,3,4,elephantB.png,lure
19/07/2021 19:58:49,19/07/2021 15:58:48,56975,3,4297756,60edf5baeda27703883525c6,Chrome 91.0.4472.124,recognition,3,SS4,96,647.5999999940395,def_old,old,high,old,1,1,0,recog_trial,SS4,2,1,1,grocery store.png,rand,2,1,4,cabbageA.png,target
19/07/2021 19:58:52,19/07/2021 15:58:51,56975,3,4297756,60edf5baeda27703883525c6,Chrome 91.0.4472.124,recognition,3,SS4,97,1431.7999999821186,def_new,new,high,new,1,1,0,recog_trial,SS4,1,1,3,grocery store.png,rand,4,4,4,onionB.png,lure
19/07/2021 19:58:54,19/07/2021 15:58:53,56975,3,4297756,60edf5baeda27703883525c6,Chrome 91.0.4472.124,recognition,3,SS4,98,758.9000000059605,def_old,old,high,new,1,0,0,recog_trial,SS4,6,3,4,pet store.png,pred,1,3,4,turtleB.png,lure
19/07/2021 19:58:59,19/07/2021 15:58:58,56975,3,4297756,60edf5baeda27703883525c6,Chrome 91.0.4472.124,recognition,3,SS4,99,3874.399999976158,def_old,old,high,new,1,0,0,recog_trial,SS4,5,3,2,grocery store.png,rand,2,4,4,pineappleB.png,lure
19/07/2021 19:59:00,19/07/2021 15:58:59,56975,3,4297756,60edf5baeda27703883525c6,Chrome 91.0.4472.124,recognition,3,SS4,100,810.6999999880791,def_old,old,high,old,1,1,0,recog_trial,SS4,2,1,1,grocery store.png,rand,6,3,4,popcornshrimpA.png,target
19/07/2021 19:59:02,19/07/2021 15:59:02,56975,3,4297756,60edf5baeda27703883525c6,Chrome 91.0.4472.124,recognition,3,SS4,101,1005.0999999940395,def_new,new,high,new,1,1,0,recog_trial,SS4,6,3,2,grocery store.png,rand,6,3,4,waffleB.png,lure
19/07/2021 19:59:05,19/07/2021 15:59:04,56975,3,4297756,60edf5baeda27703883525c6,Chrome 91.0.4472.124,recognition,3,SS4,102,1237.0999999940395,def_new,new,high,old,1,0,0,recog_trial,SS4,6,3,4,pet store.png,pred,6,4,4,octopusA.png,target
19/07/2021 20:02:15,19/07/2021 16:02:14,56975,3,4297908,5c1c157f77936700018284b7,Chrome 91.0.4472.147,recognition,3,SS6,4,2020.5999999940395,def_new,new,high,new,1,1,0,recog_trial,SS6,2,1,4,grocery store.png,rand,1,3,1,tomatoA.png,lure
19/07/2021 20:02:18,19/07/2021 16:02:18,56975,3,4297908,5c1c157f77936700018284b7,Chrome 91.0.4472.147,recognition,3,SS6,5,2654.1000000089407,maybe_new,new,low,old,1,0,0,recog_trial,SS6,7,4,3,pet store.png,pred,5,2,1,donkeyB.png,target
19/07/2021 20:02:21,19/07/2021 16:02:21,56975,3,4297908,5c1c157f77936700018284b7,Chrome 91.0.4472.147,recognition,3,SS6,6,1487.5,def_new,new,high,new,1,1,0,recog_trial,SS6,6,3,2,grocery store.png,rand,5,4,1,mushroomsA.png,lure
19/07/2021 20:02:24,19/07/2021 16:02:23,56975,3,4297908,5c1c157f77936700018284b7,Chrome 91.0.4472.147,recognition,3,SS6,7,1371.8999999910593,def_new,new,high,new,1,1,0,recog_trial,SS6,7,4,4,grocery store.png,rand,1,2,1,onionA.png,lure
19/07/2021 20:02:26,19/07/2021 16:02:25,56975,3,4297908,5c1c157f77936700018284b7,Chrome 91.0.4472.147,recognition,3,SS6,8,1302.7000000029802,def_old,old,high,old,1,1,0,recog_trial,SS6,8,4,3,grocery store.png,rand,1,3,1,bagelB.png,target
19/07/2021 20:02:29,19/07/2021 16:02:29,56975,3,4297908,5c1c157f77936700018284b7,Chrome 91.0.4472.147,recognition,3,SS6,9,2445.7000000029802,def_new,new,high,new,1,1,0,recog_trial,SS6,3,2,1,grocery store.png,rand,1,4,1,eggA.png,lure
19/07/2021 20:02:34,19/07/2021 16:02:33,56975,3,4297908,5c1c157f77936700018284b7,Chrome 91.0.4472.147,recognition,3,SS6,10,3106.7000000029802,def_new,new,high,new,1,1,0,recog_trial,SS6,4,2,1,pet store.png,pred,4,4,1,mantisA.png,lure
19/07/2021 20:02:36,19/07/2021 16:02:35,56975,3,4297908,5c1c157f77936700018284b7,Chrome 91.0.4472.147,recognition,3,SS6,11,1239.8999999910593,def_new,new,high,old,1,0,0,recog_trial,SS6,5,3,2,grocery store.png,rand,2,1,1,popcornB.png,target
19/07/2021 20:02:38,19/07/2021 16:02:38,56975,3,4297908,5c1c157f77936700018284b7,Chrome 91.0.4472.147,recognition,3,SS6,12,1132.8999999910593,def_new,new,high,old,1,0,0,recog_trial,SS6,4,2,3,grocery store.png,rand,2,4,1,coconutB.png,target
19/07/2021 20:02:40,19/07/2021 16:02:40,56975,3,4297908,5c1c157f77936700018284b7,Chrome 91.0.4472.147,recognition,3,SS6,13,1467.300000011921,def_new,new,high,new,1,1,0,recog_trial,SS6,5,3,4,pet store.png,pred,6,3,1,platypusA.png,lure
19/07/2021 20:02:44,19/07/2021 16:02:44,56975,3,4297908,5c1c157f77936700018284b7,Chrome 91.0.4472.147,recognition,3,SS6,14,2322.699999988079,def_new,new,high,old,1,0,0,recog_trial,SS6,4,2,1,pet store.png,pred,6,3,1,iguanaB.png,target
19/07/2021 20:02:46,19/07/2021 16:02:46,56975,3,4297908,5c1c157f77936700018284b7,Chrome 91.0.4472.147,recognition,3,SS6,15,1339.5999999940395,def_new,new,high,new,1,1,0,recog_trial,SS6,8,4,4,pet store.png,pred,5,2,1,crowA.png,lure
19/07/2021 20:02:48,19/07/2021 16:02:48,56975,3,4297908,5c1c157f77936700018284b7,Chrome 91.0.4472.147,recognition,3,SS6,16,986.8000000119209,def_new,new,high,new,1,1,0,recog_trial,SS6,6,3,2,grocery store.png,rand,1,2,1,bakedpotatoA.png,lure
19/07/2021 20:02:51,19/07/2021 16:02:51,56975,3,4297908,5c1c157f77936700018284b7,Chrome 91.0.4472.147,recognition,3,SS6,17,1499.199999988079,def_new,new,high,old,1,0,0,recog_trial,SS6,6,3,1,pet store.png,pred,6,3,1,rhinoB.png,target
19/07/2021 20:02:53,19/07/2021 16:02:53,56975,3,4297908,5c1c157f77936700018284b7,Chrome 91.0.4472.147,recognition,3,SS6,18,954.5999999940395,def_new,new,high,new,1,1,0,recog_trial,SS6,1,1,2,pet store.png,pred,6,3,1,cowA.png,lure
19/07/2021 20:02:56,19/07/2021 16:02:56,56975,3,4297908,5c1c157f77936700018284b7,Chrome 91.0.4472.147,recognition,3,SS6,19,2480.2000000029802,maybe_old,old,low,new,1,0,0,recog_trial,SS6,2,1,2,pet store.png,pred,3,3,1,goatA.png,lure
19/07/2021 20:02:59,19/07/2021 16:02:58,56975,3,4297908,5c1c157f77936700018284b7,Chrome 91.0.4472.147,recognition,3,SS6,20,1138.3999999910593,def_old,old,high,old,1,1,0,recog_trial,SS6,1,1,1,grocery store.png,rand,3,4,1,pretzelB.png,target
19/07/2021 20:03:01,19/07/2021 16:03:01,56975,3,4297908,5c1c157f77936700018284b7,Chrome 91.0.4472.147,recognition,3,SS6,21,1619.5,def_old,old,high,old,1,1,0,recog_trial,SS6,3,2,1,grocery store.png,rand,3,3,1,porkB.png,target
19/07/2021 20:03:05,19/07/2021 16:03:04,56975,3,4297908,5c1c157f77936700018284b7,Chrome 91.0.4472.147,recognition,3,SS6,22,1986.2999999970198,def_new,new,high,new,1,1,0,recog_trial,SS6,8,4,4,pet store.png,pred,6,3,1,hummingbirdA.png,lure
19/07/2021 20:03:07,19/07/2021 16:03:06,56975,3,4297908,5c1c157f77936700018284b7,Chrome 91.0.4472.147,recognition,3,SS6,23,1160.2000000029802,def_old,old,high,old,1,1,0,recog_trial,SS6,5,3,2,grocery store.png,rand,1,3,1,icecreamsandwichB.png,target
19/07/2021 20:03:08,19/07/2021 16:03:08,56975,3,4297908,5c1c157f77936700018284b7,Chrome 91.0.4472.147,recognition,3,SS6,24,765.7999999970198,def_old,old,high,old,1,1,0,recog_trial,SS6,8,4,4,pet store.png,pred,1,1,1,batB.png,target
19/07/2021 20:03:10,19/07/2021 16:03:10,56975,3,4297908,5c1c157f77936700018284b7,Chrome 91.0.4472.147,recognition,3,SS6,25,984.7000000029802,def_old,old,high,old,1,1,0,recog_trial,SS6,1,1,2,pet store.png,pred,5,2,1,killerwhaleB.png,target
19/07/2021 20:03:13,19/07/2021 16:03:12,56975,3,4297908,5c1c157f77936700018284b7,Chrome 91.0.4472.147,recognition,3,SS6,26,1208.9000000059605,def_new,new,high,new,1,1,0,recog_trial,SS6,4,2,3,grocery store.png,rand,5,4,1,pancakesA.png,lure
19/07/2021 20:03:15,19/07/2021 16:03:15,56975,3,4297908,5c1c157f77936700018284b7,Chrome 91.0.4472.147,recognition,3,SS6,27,973.9000000059605,def_new,new,high,old,1,0,0,recog_trial,SS6,2,1,2,pet store.png,pred,1,1,1,squirrelB.png,target
19/07/2021 20:03:21,19/07/2021 16:03:21,56975,3,4297908,5c1c157f77936700018284b7,Chrome 91.0.4472.147,recognition,3,SS6,29,1759.5,def_new,new,high,old,1,0,0,recog_trial,SS6,5,3,4,pet store.png,pred,5,2,2,toucanB.png,target
19/07/2021 20:03:23,19/07/2021 16:03:23,56975,3,4297908,5c1c157f77936700018284b7,Chrome 91.0.4472.147,recognition,3,SS6,30,833.5,def_new,new,high,old,1,0,0,recog_trial,SS6,3,2,3,pet store.png,pred,1,1,2,parrotB.png,target
19/07/2021 20:03:25,19/07/2021 16:03:25,56975,3,4297908,5c1c157f77936700018284b7,Chrome 91.0.4472.147,recognition,3,SS6,31,1109,def_old,old,high,old,1,1,0,recog_trial,SS6,3,2,1,grocery store.png,rand,5,3,2,garlicB.png,target
19/07/2021 20:03:27,19/07/2021 16:03:27,56975,3,4297908,5c1c157f77936700018284b7,Chrome 91.0.4472.147,recognition,3,SS6,32,864.6000000089407,def_new,new,high,new,1,1,0,recog_trial,SS6,7,4,4,grocery store.png,rand,2,4,2,cupcakeA.png,lure
19/07/2021 20:03:29,19/07/2021 16:03:29,56975,3,4297908,5c1c157f77936700018284b7,Chrome 91.0.4472.147,recognition,3,SS6,33,1048.5,def_old,old,high,new,1,0,0,recog_trial,SS6,4,2,1,pet store.png,pred,1,1,2,wolfA.png,lure
19/07/2021 20:03:31,19/07/2021 16:03:31,56975,3,4297908,5c1c157f77936700018284b7,Chrome 91.0.4472.147,recognition,3,SS6,34,908.1000000089407,def_new,new,high,new,1,1,0,recog_trial,SS6,7,4,3,pet store.png,pred,1,1,2,boarA.png,lure
19/07/2021 20:03:33,19/07/2021 16:03:33,56975,3,4297908,5c1c157f77936700018284b7,Chrome 91.0.4472.147,recognition,3,SS6,35,821.9000000059605,def_new,new,high,new,1,1,0,recog_trial,SS6,6,3,2,grocery store.png,rand,2,1,2,orangeA.png,lure
19/07/2021 20:03:35,19/07/2021 16:03:35,56975,3,4297908,5c1c157f77936700018284b7,Chrome 91.0.4472.147,recognition,3,SS6,36,937.7000000029802,def_new,new,high,old,1,0,0,recog_trial,SS6,5,3,4,pet store.png,pred,4,4,2,mooseB.png,target
19/07/2021 20:03:37,19/07/2021 16:03:37,56975,3,4297908,5c1c157f77936700018284b7,Chrome 91.0.4472.147,recognition,3,SS6,37,1090.4000000059605,def_old,old,high,old,1,1,0,recog_trial,SS6,4,2,1,pet store.png,pred,5,2,2,badgerB.png,target
19/07/2021 20:03:40,19/07/2021 16:03:40,56975,3,4297908,5c1c157f77936700018284b7,Chrome 91.0.4472.147,recognition,3,SS6,38,1839.7000000029802,def_new,new,high,new,1,1,0,recog_trial,SS6,2,1,4,grocery store.png,rand,4,1,2,asparagusA.png,lure
19/07/2021 20:03:43,19/07/2021 16:03:42,56975,3,4297908,5c1c157f77936700018284b7,Chrome 91.0.4472.147,recognition,3,SS6,39,1423,def_old,old,high,new,1,0,0,recog_trial,SS6,2,1,4,grocery store.png,rand,3,4,2,waffleA.png,lure
19/07/2021 20:03:44,19/07/2021 16:03:44,56975,3,4297908,5c1c157f77936700018284b7,Chrome 91.0.4472.147,recognition,3,SS6,40,800.3000000119209,def_old,old,high,old,1,1,0,recog_trial,SS6,7,4,4,grocery store.png,rand,5,3,2,jalapenoB.png,target
19/07/2021 20:03:48,19/07/2021 16:03:48,56975,3,4297908,5c1c157f77936700018284b7,Chrome 91.0.4472.147,recognition,3,SS6,41,2983.5,def_new,new,high,old,1,0,0,recog_trial,SS6,7,4,4,grocery store.png,rand,3,3,2,acaibowlB.png,target
19/07/2021 20:03:52,19/07/2021 16:03:52,56975,3,4297908,5c1c157f77936700018284b7,Chrome 91.0.4472.147,recognition,3,SS6,42,2259.9000000059605,def_new,new,high,old,1,0,0,recog_trial,SS6,7,4,3,pet store.png,pred,4,4,2,catB.png,target
19/07/2021 20:03:55,19/07/2021 16:03:54,56975,3,4297908,5c1c157f77936700018284b7,Chrome 91.0.4472.147,recognition,3,SS6,43,1350.9000000059605,def_old,old,high,old,1,1,0,recog_trial,SS6,1,1,1,grocery store.png,rand,1,3,2,sandwichB.png,target
19/07/2021 20:03:57,19/07/2021 16:03:56,56975,3,4297908,5c1c157f77936700018284b7,Chrome 91.0.4472.147,recognition,3,SS6,44,1409.4000000059605,def_new,new,high,new,1,1,0,recog_trial,SS6,1,1,1,grocery store.png,rand,6,2,2,beetA.png,lure
19/07/2021 20:03:59,19/07/2021 16:03:59,56975,3,4297908,5c1c157f77936700018284b7,Chrome 91.0.4472.147,recognition,3,SS6,45,1654.5,def_new,new,high,new,1,1,0,recog_trial,SS6,6,3,1,pet store.png,pred,4,4,2,camelA.png,lure
19/07/2021 20:04:01,19/07/2021 16:04:01,56975,3,4297908,5c1c157f77936700018284b7,Chrome 91.0.4472.147,recognition,3,SS6,46,1024.2000000029802,def_old,old,high,old,1,1,0,recog_trial,SS6,1,1,2,pet store.png,pred,4,4,2,tigerB.png,target
19/07/2021 20:04:04,19/07/2021 16:04:03,56975,3,4297908,5c1c157f77936700018284b7,Chrome 91.0.4472.147,recognition,3,SS6,47,1022.5,def_new,new,high,old,1,0,0,recog_trial,SS6,6,3,1,pet store.png,pred,1,1,2,pigB.png,target
19/07/2021 20:04:05,19/07/2021 16:04:05,56975,3,4297908,5c1c157f77936700018284b7,Chrome 91.0.4472.147,recognition,3,SS6,48,770,def_new,new,high,new,1,1,0,recog_trial,SS6,4,2,3,grocery store.png,rand,3,3,2,cornA.png,lure
19/07/2021 20:04:08,19/07/2021 16:04:07,56975,3,4297908,5c1c157f77936700018284b7,Chrome 91.0.4472.147,recognition,3,SS6,49,1213.2999999970198,def_new,new,high,new,1,1,0,recog_trial,SS6,7,4,3,pet store.png,pred,2,4,2,lemurA.png,lure
19/07/2021 20:04:10,19/07/2021 16:04:09,56975,3,4297908,5c1c157f77936700018284b7,Chrome 91.0.4472.147,recognition,3,SS6,50,861.5999999940395,def_new,new,high,old,1,0,0,recog_trial,SS6,1,1,2,pet store.png,pred,2,4,2,seahorseB.png,target
19/07/2021 20:04:11,19/07/2021 16:04:11,56975,3,4297908,5c1c157f77936700018284b7,Chrome 91.0.4472.147,recognition,3,SS6,51,800.3000000119209,def_old,old,high,new,1,0,0,recog_trial,SS6,6,3,1,pet store.png,pred,5,2,2,crabA.png,lure
19/07/2021 20:04:15,19/07/2021 16:04:14,56975,3,4297908,5c1c157f77936700018284b7,Chrome 91.0.4472.147,recognition,3,SS6,52,1733.8999999910593,def_new,new,high,new,1,1,0,recog_trial,SS6,3,2,1,grocery store.png,rand,2,2,2,raspberriesA.png,lure
19/07/2021 20:04:24,19/07/2021 16:04:23,56975,3,4297908,5c1c157f77936700018284b7,Chrome 91.0.4472.147,recognition,3,SS6,54,1215.7999999970198,def_new,new,high,old,1,0,0,recog_trial,SS6,2,1,4,grocery store.png,rand,2,1,3,popcornshrimpB.png,target
19/07/2021 20:04:25,19/07/2021 16:04:25,56975,3,4297908,5c1c157f77936700018284b7,Chrome 91.0.4472.147,recognition,3,SS6,55,1083.1000000089407,def_old,old,high,old,1,1,0,recog_trial,SS6,3,2,3,pet store.png,pred,4,4,3,pugB.png,target
19/07/2021 20:04:29,19/07/2021 16:04:29,56975,3,4297908,5c1c157f77936700018284b7,Chrome 91.0.4472.147,recognition,3,SS6,56,2542,def_old,old,high,new,1,0,0,recog_trial,SS6,6,3,2,grocery store.png,rand,3,4,3,avocadoA.png,lure
19/07/2021 20:04:32,19/07/2021 16:04:31,56975,3,4297908,5c1c157f77936700018284b7,Chrome 91.0.4472.147,recognition,3,SS6,57,1716.6000000089407,maybe_old,old,low,new,1,0,0,recog_trial,SS6,1,1,2,pet store.png,pred,1,1,3,chimpA.png,lure
19/07/2021 20:04:36,19/07/2021 16:04:36,56975,3,4297908,5c1c157f77936700018284b7,Chrome 91.0.4472.147,recognition,3,SS6,58,3130.4000000059605,def_new,new,high,new,1,1,0,recog_trial,SS6,4,2,1,pet store.png,pred,3,3,3,hammerheadsharkA.png,lure
19/07/2021 20:04:38,19/07/2021 16:04:38,56975,3,4297908,5c1c157f77936700018284b7,Chrome 91.0.4472.147,recognition,3,SS6,59,1108.800000011921,def_old,old,high,old,1,1,0,recog_trial,SS6,1,1,2,pet store.png,pred,3,3,3,crocodileB.png,target
19/07/2021 20:04:41,19/07/2021 16:04:41,56975,3,4297908,5c1c157f77936700018284b7,Chrome 91.0.4472.147,recognition,3,SS6,60,1694.7999999970198,def_old,old,high,new,1,0,0,recog_trial,SS6,8,4,3,grocery store.png,rand,4,4,3,milkA.png,lure
19/07/2021 20:04:45,19/07/2021 16:04:45,56975,3,4297908,5c1c157f77936700018284b7,Chrome 91.0.4472.147,recognition,3,SS6,61,3121.199999988079,def_old,old,high,new,1,0,0,recog_trial,SS6,8,4,3,grocery store.png,rand,5,1,3,basilA.png,lure
19/07/2021 20:04:47,19/07/2021 16:04:47,56975,3,4297908,5c1c157f77936700018284b7,Chrome 91.0.4472.147,recognition,3,SS6,62,1177,def_old,old,high,old,1,1,0,recog_trial,SS6,8,4,3,grocery store.png,rand,2,4,3,artichokeB.png,target
19/07/2021 20:04:49,19/07/2021 16:04:49,56975,3,4297908,5c1c157f77936700018284b7,Chrome 91.0.4472.147,recognition,3,SS6,63,1114,def_old,old,high,new,1,0,0,recog_trial,SS6,2,1,2,pet store.png,pred,5,2,3,snailA.png,lure
19/07/2021 20:04:53,19/07/2021 16:04:53,56975,3,4297908,5c1c157f77936700018284b7,Chrome 91.0.4472.147,recognition,3,SS6,64,2518.5,maybe_old,old,low,old,1,1,0,recog_trial,SS6,8,4,3,grocery store.png,rand,6,2,3,breadB.png,target
19/07/2021 20:04:56,19/07/2021 16:04:56,56975,3,4297908,5c1c157f77936700018284b7,Chrome 91.0.4472.147,recognition,3,SS6,65,2366.5,def_new,new,high,new,1,1,0,recog_trial,SS6,5,3,4,pet store.png,pred,1,1,3,hermitcrabA.png,lure
19/07/2021 20:05:00,19/07/2021 16:05:00,56975,3,4297908,5c1c157f77936700018284b7,Chrome 91.0.4472.147,recognition,3,SS6,66,2228,maybe_old,old,low,old,1,1,0,recog_trial,SS6,2,1,4,grocery store.png,rand,5,2,3,broccoliB.png,target
19/07/2021 20:05:02,19/07/2021 16:05:02,56975,3,4297908,5c1c157f77936700018284b7,Chrome 91.0.4472.147,recognition,3,SS6,67,1149,def_old,old,high,old,1,1,0,recog_trial,SS6,7,4,4,grocery store.png,rand,4,1,3,lycheeB.png,target
19/07/2021 20:05:04,19/07/2021 16:05:04,56975,3,4297908,5c1c157f77936700018284b7,Chrome 91.0.4472.147,recognition,3,SS6,68,916.3999999910593,def_old,old,high,old,1,1,0,recog_trial,SS6,4,2,1,pet store.png,pred,2,4,3,hippoB.png,target
19/07/2021 20:05:06,19/07/2021 16:05:06,56975,3,4297908,5c1c157f77936700018284b7,Chrome 91.0.4472.147,recognition,3,SS6,69,922.7999999970198,def_old,old,high,new,1,0,0,recog_trial,SS6,8,4,4,pet store.png,pred,4,4,3,cardinalA.png,lure
19/07/2021 20:05:08,19/07/2021 16:05:08,56975,3,4297908,5c1c157f77936700018284b7,Chrome 91.0.4472.147,recognition,3,SS6,70,1005.2999999970198,def_old,old,high,old,1,1,0,recog_trial,SS6,6,3,2,grocery store.png,rand,6,1,3,dragonfruitB.png,target
19/07/2021 20:05:13,19/07/2021 16:05:13,56975,3,4297908,5c1c157f77936700018284b7,Chrome 91.0.4472.147,recognition,3,SS6,71,3981.3999999910593,maybe_new,new,low,new,1,1,0,recog_trial,SS6,3,2,3,pet store.png,pred,5,2,3,bettafishA.png,lure
19/07/2021 20:05:15,19/07/2021 16:05:15,56975,3,4297908,5c1c157f77936700018284b7,Chrome 91.0.4472.147,recognition,3,SS6,72,1185.4000000059605,def_old,old,high,old,1,1,0,recog_trial,SS6,5,3,2,grocery store.png,rand,3,2,3,cheeseB.png,target
19/07/2021 20:05:18,19/07/2021 16:05:18,56975,3,4297908,5c1c157f77936700018284b7,Chrome 91.0.4472.147,recognition,3,SS6,73,1766.6000000089407,def_new,new,high,new,1,1,0,recog_trial,SS6,6,3,1,pet store.png,pred,3,3,3,giraffeA.png,lure
19/07/2021 20:05:21,19/07/2021 16:05:21,56975,3,4297908,5c1c157f77936700018284b7,Chrome 91.0.4472.147,recognition,3,SS6,74,2164.1000000089407,def_old,old,high,old,1,1,0,recog_trial,SS6,5,3,2,grocery store.png,rand,5,4,3,ravioliB.png,target
19/07/2021 20:05:24,19/07/2021 16:05:23,56975,3,4297908,5c1c157f77936700018284b7,Chrome 91.0.4472.147,recognition,3,SS6,75,1036.3999999910593,def_old,old,high,new,1,0,0,recog_trial,SS6,2,1,2,pet store.png,pred,4,4,3,surgeonfishA.png,lure
19/07/2021 20:05:25,19/07/2021 16:05:25,56975,3,4297908,5c1c157f77936700018284b7,Chrome 91.0.4472.147,recognition,3,SS6,76,713.4000000059605,def_old,old,high,old,1,1,0,recog_trial,SS6,4,2,3,grocery store.png,rand,1,2,3,burgerB.png,target
19/07/2021 20:05:27,19/07/2021 16:05:27,56975,3,4297908,5c1c157f77936700018284b7,Chrome 91.0.4472.147,recognition,3,SS6,77,764.1000000089407,def_old,old,high,new,1,0,0,recog_trial,SS6,3,2,3,pet store.png,pred,2,4,3,ratA.png,lure
19/07/2021 20:05:51,19/07/2021 16:05:51,56975,3,4297908,5c1c157f77936700018284b7,Chrome 91.0.4472.147,recognition,3,SS6,79,2229.5,def_new,new,high,old,1,0,0,recog_trial,SS6,5,3,4,pet store.png,pred,2,4,4,pangolinB.png,target
19/07/2021 20:05:53,19/07/2021 16:05:53,56975,3,4297908,5c1c157f77936700018284b7,Chrome 91.0.4472.147,recognition,3,SS6,80,999.7999999970198,def_new,new,high,old,1,0,0,recog_trial,SS6,7,4,3,pet store.png,pred,6,3,4,toadB.png,target
19/07/2021 20:05:56,19/07/2021 16:05:56,56975,3,4297908,5c1c157f77936700018284b7,Chrome 91.0.4472.147,recognition,3,SS6,81,1970.2000000029802,def_new,new,high,new,1,1,0,recog_trial,SS6,5,3,2,grocery store.png,rand,4,1,4,poutineA.png,lure
19/07/2021 20:05:58,19/07/2021 16:05:58,56975,3,4297908,5c1c157f77936700018284b7,Chrome 91.0.4472.147,recognition,3,SS6,82,880.7000000029802,def_new,new,high,new,1,1,0,recog_trial,SS6,1,1,1,grocery store.png,rand,2,2,4,riceA.png,lure
19/07/2021 20:06:00,19/07/2021 16:06:00,56975,3,4297908,5c1c157f77936700018284b7,Chrome 91.0.4472.147,recognition,3,SS6,83,913.3999999910593,def_old,old,high,old,1,1,0,recog_trial,SS6,2,1,4,grocery store.png,rand,6,4,4,pomegranateB.png,target
19/07/2021 20:06:02,19/07/2021 16:06:02,56975,3,4297908,5c1c157f77936700018284b7,Chrome 91.0.4472.147,recognition,3,SS6,84,1313.7999999970198,def_new,new,high,new,1,1,0,recog_trial,SS6,1,1,1,grocery store.png,rand,5,4,4,cinnamonA.png,lure
19/07/2021 20:06:05,19/07/2021 16:06:04,56975,3,4297908,5c1c157f77936700018284b7,Chrome 91.0.4472.147,recognition,3,SS6,85,1049.9000000059605,def_new,new,high,old,1,0,0,recog_trial,SS6,6,3,2,grocery store.png,rand,4,3,4,grapesB.png,target
19/07/2021 20:06:07,19/07/2021 16:06:06,56975,3,4297908,5c1c157f77936700018284b7,Chrome 91.0.4472.147,recognition,3,SS6,86,808.0999999940395,def_old,old,high,old,1,1,0,recog_trial,SS6,3,2,1,grocery store.png,rand,6,2,4,brusselsproutsB.png,target
19/07/2021 20:06:09,19/07/2021 16:06:09,56975,3,4297908,5c1c157f77936700018284b7,Chrome 91.0.4472.147,recognition,3,SS6,87,1163.2000000029802,def_new,new,high,old,1,0,0,recog_trial,SS6,7,4,3,pet store.png,pred,3,3,4,flamingoB.png,target
19/07/2021 20:06:11,19/07/2021 16:06:11,56975,3,4297908,5c1c157f77936700018284b7,Chrome 91.0.4472.147,recognition,3,SS6,88,1180.7999999970198,def_old,old,high,old,1,1,0,recog_trial,SS6,8,4,4,pet store.png,pred,2,4,4,ferretB.png,target
19/07/2021 20:06:14,19/07/2021 16:06:13,56975,3,4297908,5c1c157f77936700018284b7,Chrome 91.0.4472.147,recognition,3,SS6,89,1300,def_old,old,high,new,1,0,0,recog_trial,SS6,4,2,3,grocery store.png,rand,4,1,4,chocolateA.png,lure
19/07/2021 20:06:15,19/07/2021 16:06:15,56975,3,4297908,5c1c157f77936700018284b7,Chrome 91.0.4472.147,recognition,3,SS6,90,894.5,def_old,old,high,old,1,1,0,recog_trial,SS6,2,1,2,pet store.png,pred,6,3,4,cheetahB.png,target
19/07/2021 20:06:17,19/07/2021 16:06:17,56975,3,4297908,5c1c157f77936700018284b7,Chrome 91.0.4472.147,recognition,3,SS6,91,820.3999999910593,def_old,old,high,old,1,1,0,recog_trial,SS6,3,2,1,grocery store.png,rand,4,1,4,honeycombB.png,target
19/07/2021 20:06:19,19/07/2021 16:06:19,56975,3,4297908,5c1c157f77936700018284b7,Chrome 91.0.4472.147,recognition,3,SS6,92,1256.9000000059605,def_new,new,high,new,1,1,0,recog_trial,SS6,8,4,4,pet store.png,pred,3,3,4,squidA.png,lure
19/07/2021 20:06:22,19/07/2021 16:06:21,56975,3,4297908,5c1c157f77936700018284b7,Chrome 91.0.4472.147,recognition,3,SS6,93,955,def_new,new,high,new,1,1,0,recog_trial,SS6,3,2,3,pet store.png,pred,6,3,4,sheepA.png,lure
19/07/2021 20:06:24,19/07/2021 16:06:23,56975,3,4297908,5c1c157f77936700018284b7,Chrome 91.0.4472.147,recognition,3,SS6,94,891,def_old,old,high,old,1,1,0,recog_trial,SS6,1,1,1,grocery store.png,rand,4,1,4,caramelappleB.png,target
19/07/2021 20:06:25,19/07/2021 16:06:25,56975,3,4297908,5c1c157f77936700018284b7,Chrome 91.0.4472.147,recognition,3,SS6,95,981.4000000059605,def_new,new,high,new,1,1,0,recog_trial,SS6,4,2,3,grocery store.png,rand,6,1,4,cerealA.png,lure
19/07/2021 20:06:28,19/07/2021 16:06:28,56975,3,4297908,5c1c157f77936700018284b7,Chrome 91.0.4472.147,recognition,3,SS6,96,1242.5,def_new,new,high,new,1,1,0,recog_trial,SS6,5,3,2,grocery store.png,rand,6,2,4,seaweedA.png,lure
19/07/2021 20:06:30,19/07/2021 16:06:29,56975,3,4297908,5c1c157f77936700018284b7,Chrome 91.0.4472.147,recognition,3,SS6,97,810.7999999970198,def_new,new,high,new,1,1,0,recog_trial,SS6,8,4,3,grocery store.png,rand,3,2,4,mustardA.png,lure
19/07/2021 20:06:32,19/07/2021 16:06:31,56975,3,4297908,5c1c157f77936700018284b7,Chrome 91.0.4472.147,recognition,3,SS6,98,827.7000000029802,def_new,new,high,new,1,1,0,recog_trial,SS6,7,4,4,grocery store.png,rand,6,4,4,fortunecookieA.png,lure
19/07/2021 20:06:34,19/07/2021 16:06:33,56975,3,4297908,5c1c157f77936700018284b7,Chrome 91.0.4472.147,recognition,3,SS6,99,948.7000000029802,def_new,new,high,new,1,1,0,recog_trial,SS6,6,3,1,pet store.png,pred,2,4,4,whaleA.png,lure
19/07/2021 20:06:36,19/07/2021 16:06:35,56975,3,4297908,5c1c157f77936700018284b7,Chrome 91.0.4472.147,recognition,3,SS6,100,1040.4000000059605,def_new,new,high,new,1,1,0,recog_trial,SS6,2,1,2,pet store.png,pred,2,4,4,bloodhoundA.png,lure
19/07/2021 20:06:38,19/07/2021 16:06:38,56975,3,4297908,5c1c157f77936700018284b7,Chrome 91.0.4472.147,recognition,3,SS6,101,1024,def_old,old,high,old,1,1,0,recog_trial,SS6,3,2,3,pet store.png,pred,3,3,4,tortoiseB.png,target
19/07/2021 20:06:40,19/07/2021 16:06:40,56975,3,4297908,5c1c157f77936700018284b7,Chrome 91.0.4472.147,recognition,3,SS6,102,1159.5999999940395,def_new,new,high,old,1,0,0,recog_trial,SS6,5,3,4,pet store.png,pred,3,3,4,chameleonB.png,target
19/07/2021 20:04:55,19/07/2021 16:04:55,56975,3,4297922,5c3272172f0f3500010284c0,Chrome 87.0.4280.88,recognition,3,SS1,4,3051.75500002224,def_old,old,high,new,1,0,0,recog_trial,SS1,1,1,3,pet store.png,rand,6,4,1,lionB.png,lure
19/07/2021 20:04:57,19/07/2021 16:04:57,56975,3,4297922,5c3272172f0f3500010284c0,Chrome 87.0.4280.88,recognition,3,SS1,5,1235.1600000401959,def_old,old,high,new,1,0,0,recog_trial,SS1,2,1,4,grocery store.png,pred,6,3,1,watermelonB.png,lure
19/07/2021 20:05:03,19/07/2021 16:05:02,56975,3,4297922,5c3272172f0f3500010284c0,Chrome 87.0.4280.88,recognition,3,SS1,6,4408.464999985881,maybe_old,old,low,new,1,0,0,recog_trial,SS1,4,2,4,pet store.png,rand,4,4,1,grasshopperB.png,lure
19/07/2021 20:05:07,19/07/2021 16:05:07,56975,3,4297922,5c3272172f0f3500010284c0,Chrome 87.0.4280.88,recognition,3,SS1,7,3457.5349999940954,def_old,old,high,old,1,1,0,recog_trial,SS1,8,4,2,grocery store.png,pred,1,1,1,blackpepperA.png,target
19/07/2021 20:05:09,19/07/2021 16:05:09,56975,3,4297922,5c3272172f0f3500010284c0,Chrome 87.0.4280.88,recognition,3,SS1,8,1390.914999996312,def_old,old,high,old,1,1,0,recog_trial,SS1,4,2,4,pet store.png,rand,3,2,1,chimpA.png,target
19/07/2021 20:05:11,19/07/2021 16:05:11,56975,3,4297922,5c3272172f0f3500010284c0,Chrome 87.0.4280.88,recognition,3,SS1,9,813.2499999483116,def_old,old,high,old,1,1,0,recog_trial,SS1,2,1,2,pet store.png,rand,2,1,1,elephantA.png,target
19/07/2021 20:05:13,19/07/2021 16:05:13,56975,3,4297922,5c3272172f0f3500010284c0,Chrome 87.0.4280.88,recognition,3,SS1,10,909.0399999986403,def_old,old,high,old,1,1,0,recog_trial,SS1,7,4,3,pet store.png,rand,4,1,1,snakeA.png,target
19/07/2021 20:05:16,19/07/2021 16:05:15,56975,3,4297922,5c3272172f0f3500010284c0,Chrome 87.0.4280.88,recognition,3,SS1,11,1464.1200000187382,def_old,old,high,old,1,1,0,recog_trial,SS1,5,3,4,pet store.png,rand,4,1,1,zebraA.png,target
19/07/2021 20:05:18,19/07/2021 16:05:17,56975,3,4297922,5c3272172f0f3500010284c0,Chrome 87.0.4280.88,recognition,3,SS1,12,958.2350000273436,def_old,old,high,old,1,1,0,recog_trial,SS1,5,3,4,pet store.png,rand,5,3,1,mooseA.png,target
19/07/2021 20:05:20,19/07/2021 16:05:19,56975,3,4297922,5c3272172f0f3500010284c0,Chrome 87.0.4280.88,recognition,3,SS1,13,991.9499999959953,def_old,old,high,old,1,1,0,recog_trial,SS1,8,4,1,pet store.png,rand,3,2,1,walrusA.png,target
19/07/2021 20:05:22,19/07/2021 16:05:22,56975,3,4297922,5c3272172f0f3500010284c0,Chrome 87.0.4280.88,recognition,3,SS1,14,1534.429999999702,def_new,new,high,new,1,1,0,recog_trial,SS1,2,1,4,grocery store.png,pred,4,4,1,guavaB.png,lure
19/07/2021 20:05:24,19/07/2021 16:05:24,56975,3,4297922,5c3272172f0f3500010284c0,Chrome 87.0.4280.88,recognition,3,SS1,15,1207.5349999940954,def_old,old,high,new,1,0,0,recog_trial,SS1,8,4,1,pet store.png,rand,4,1,1,snailB.png,lure
19/07/2021 20:05:27,19/07/2021 16:05:26,56975,3,4297922,5c3272172f0f3500010284c0,Chrome 87.0.4280.88,recognition,3,SS1,16,1248.055000032764,def_old,old,high,new,1,0,0,recog_trial,SS1,6,3,1,pet store.png,rand,3,1,1,whaleB.png,lure
19/07/2021 20:05:29,19/07/2021 16:05:29,56975,3,4297922,5c3272172f0f3500010284c0,Chrome 87.0.4280.88,recognition,3,SS1,17,1213.045000040438,def_old,old,high,old,1,1,0,recog_trial,SS1,4,2,2,grocery store.png,pred,1,1,1,lycheeA.png,target
19/07/2021 20:05:31,19/07/2021 16:05:31,56975,3,4297922,5c3272172f0f3500010284c0,Chrome 87.0.4280.88,recognition,3,SS1,18,1125.324999971781,def_new,new,high,old,1,0,0,recog_trial,SS1,1,1,4,grocery store.png,pred,1,1,1,bellpeppersA.png,target
19/07/2021 20:05:33,19/07/2021 16:05:33,56975,3,4297922,5c3272172f0f3500010284c0,Chrome 87.0.4280.88,recognition,3,SS1,19,861.9550000294112,def_old,old,high,old,1,1,0,recog_trial,SS1,6,3,3,grocery store.png,pred,1,1,1,grapesA.png,target
19/07/2021 20:05:35,19/07/2021 16:05:35,56975,3,4297922,5c3272172f0f3500010284c0,Chrome 87.0.4280.88,recognition,3,SS1,20,979.0950000169687,def_old,old,high,old,1,1,0,recog_trial,SS1,3,2,2,pet store.png,rand,4,2,1,hermitcrabA.png,target
19/07/2021 20:05:37,19/07/2021 16:05:37,56975,3,4297922,5c3272172f0f3500010284c0,Chrome 87.0.4280.88,recognition,3,SS1,21,1348.444999952335,def_new,new,high,new,1,1,0,recog_trial,SS1,4,2,4,pet store.png,rand,5,1,1,bettafishB.png,lure
19/07/2021 20:05:39,19/07/2021 16:05:39,56975,3,4297922,5c3272172f0f3500010284c0,Chrome 87.0.4280.88,recognition,3,SS1,22,1277.1899999934249,def_old,old,high,new,1,0,0,recog_trial,SS1,5,3,4,pet store.png,rand,1,4,1,batB.png,lure
19/07/2021 20:05:41,19/07/2021 16:05:41,56975,3,4297922,5c3272172f0f3500010284c0,Chrome 87.0.4280.88,recognition,3,SS1,23,690.2049999916926,def_old,old,high,old,1,1,0,recog_trial,SS1,2,1,2,pet store.png,rand,1,2,1,manateeA.png,target
19/07/2021 20:05:44,19/07/2021 16:05:44,56975,3,4297922,5c3272172f0f3500010284c0,Chrome 87.0.4280.88,recognition,3,SS1,24,2065.4750000103377,maybe_old,old,low,new,1,0,0,recog_trial,SS1,7,4,3,pet store.png,rand,5,2,1,foxB.png,lure
19/07/2021 20:05:48,19/07/2021 16:05:48,56975,3,4297922,5c3272172f0f3500010284c0,Chrome 87.0.4280.88,recognition,3,SS1,25,2922.450000012759,def_new,new,high,new,1,1,0,recog_trial,SS1,7,4,1,grocery store.png,pred,1,1,1,acaibowlB.png,lure
19/07/2021 20:05:50,19/07/2021 16:05:50,56975,3,4297922,5c3272172f0f3500010284c0,Chrome 87.0.4280.88,recognition,3,SS1,26,1157.039999961853,def_new,new,high,new,1,1,0,recog_trial,SS1,3,2,1,grocery store.png,pred,1,1,1,cookedchickenB.png,lure
19/07/2021 20:05:53,19/07/2021 16:05:53,56975,3,4297922,5c3272172f0f3500010284c0,Chrome 87.0.4280.88,recognition,3,SS1,27,1454.955000022892,def_old,old,high,new,1,0,0,recog_trial,SS1,5,3,3,grocery store.png,pred,1,1,1,burritoB.png,lure
19/07/2021 20:06:01,19/07/2021 16:06:01,56975,3,4297922,5c3272172f0f3500010284c0,Chrome 87.0.4280.88,recognition,3,SS1,29,3794.3799999775365,def_old,old,high,old,1,1,0,recog_trial,SS1,5,3,3,grocery store.png,pred,4,4,2,cupnoodleA.png,target
19/07/2021 20:06:04,19/07/2021 16:06:04,56975,3,4297922,5c3272172f0f3500010284c0,Chrome 87.0.4280.88,recognition,3,SS1,30,2314.680000010412,maybe_old,old,low,old,1,1,0,recog_trial,SS1,6,3,1,pet store.png,rand,1,4,2,crabA.png,target
19/07/2021 20:06:07,19/07/2021 16:06:06,56975,3,4297922,5c3272172f0f3500010284c0,Chrome 87.0.4280.88,recognition,3,SS1,31,1565.9100000048056,def_old,old,high,new,1,0,0,recog_trial,SS1,2,1,2,pet store.png,rand,4,3,2,bloodhoundB.png,lure
19/07/2021 20:06:09,19/07/2021 16:06:09,56975,3,4297922,5c3272172f0f3500010284c0,Chrome 87.0.4280.88,recognition,3,SS1,32,1829.1500000050291,maybe_old,old,low,new,1,0,0,recog_trial,SS1,5,3,4,pet store.png,rand,2,2,2,pugB.png,lure
19/07/2021 20:06:12,19/07/2021 16:06:11,56975,3,4297922,5c3272172f0f3500010284c0,Chrome 87.0.4280.88,recognition,3,SS1,33,1135.054999962449,def_old,old,high,old,1,1,0,recog_trial,SS1,6,3,1,pet store.png,rand,2,2,2,bearA.png,target
19/07/2021 20:06:14,19/07/2021 16:06:14,56975,3,4297922,5c3272172f0f3500010284c0,Chrome 87.0.4280.88,recognition,3,SS1,34,1495.1250000158325,maybe_new,new,low,new,1,1,0,recog_trial,SS1,3,2,2,pet store.png,rand,6,3,2,bisonB.png,lure
19/07/2021 20:06:17,19/07/2021 16:06:16,56975,3,4297922,5c3272172f0f3500010284c0,Chrome 87.0.4280.88,recognition,3,SS1,35,1498.2699999818578,maybe_new,new,low,old,1,0,0,recog_trial,SS1,3,2,2,pet store.png,rand,5,1,2,horseA.png,target
19/07/2021 20:06:19,19/07/2021 16:06:19,56975,3,4297922,5c3272172f0f3500010284c0,Chrome 87.0.4280.88,recognition,3,SS1,36,1092.7750000264496,def_old,old,high,new,1,0,0,recog_trial,SS1,2,1,2,pet store.png,rand,5,4,2,eagleB.png,lure
19/07/2021 20:06:22,19/07/2021 16:06:21,56975,3,4297922,5c3272172f0f3500010284c0,Chrome 87.0.4280.88,recognition,3,SS1,37,1920.3099999576807,def_old,old,high,old,1,1,0,recog_trial,SS1,7,4,1,grocery store.png,pred,2,4,2,icecreamsandwichA.png,target
19/07/2021 20:06:24,19/07/2021 16:06:24,56975,3,4297922,5c3272172f0f3500010284c0,Chrome 87.0.4280.88,recognition,3,SS1,38,1740.5399999697693,maybe_new,new,low,old,1,0,0,recog_trial,SS1,3,2,1,grocery store.png,pred,4,4,2,carrotsA.png,target
19/07/2021 20:06:27,19/07/2021 16:06:26,56975,3,4297922,5c3272172f0f3500010284c0,Chrome 87.0.4280.88,recognition,3,SS1,39,1236.1199999577366,maybe_new,new,low,old,1,0,0,recog_trial,SS1,1,1,4,grocery store.png,pred,6,3,2,artichokeA.png,target
19/07/2021 20:06:29,19/07/2021 16:06:28,56975,3,4297922,5c3272172f0f3500010284c0,Chrome 87.0.4280.88,recognition,3,SS1,40,978.9999999920838,def_old,old,high,new,1,0,0,recog_trial,SS1,8,4,2,grocery store.png,pred,6,3,2,coconutB.png,lure
19/07/2021 20:06:31,19/07/2021 16:06:30,56975,3,4297922,5c3272172f0f3500010284c0,Chrome 87.0.4280.88,recognition,3,SS1,41,884.7749999840744,def_old,old,high,old,1,1,0,recog_trial,SS1,7,4,1,grocery store.png,pred,6,3,2,mustardA.png,target
19/07/2021 20:06:33,19/07/2021 16:06:33,56975,3,4297922,5c3272172f0f3500010284c0,Chrome 87.0.4280.88,recognition,3,SS1,42,1223.3500000438653,maybe_new,new,low,old,1,0,0,recog_trial,SS1,1,1,3,pet store.png,rand,3,1,2,boarA.png,target
19/07/2021 20:06:35,19/07/2021 16:06:35,56975,3,4297922,5c3272172f0f3500010284c0,Chrome 87.0.4280.88,recognition,3,SS1,43,1135.5549999861978,def_old,old,high,new,1,0,0,recog_trial,SS1,2,1,4,grocery store.png,pred,2,4,2,waffleB.png,lure
19/07/2021 20:06:37,19/07/2021 16:06:37,56975,3,4297922,5c3272172f0f3500010284c0,Chrome 87.0.4280.88,recognition,3,SS1,44,1334.7699999576434,def_old,old,high,new,1,0,0,recog_trial,SS1,4,2,2,grocery store.png,pred,5,2,2,gummybearsB.png,lure
19/07/2021 20:06:40,19/07/2021 16:06:39,56975,3,4297922,5c3272172f0f3500010284c0,Chrome 87.0.4280.88,recognition,3,SS1,45,1289.089999976568,maybe_new,new,low,new,1,1,0,recog_trial,SS1,6,3,1,pet store.png,rand,4,3,2,emuB.png,lure
19/07/2021 20:06:42,19/07/2021 16:06:42,56975,3,4297922,5c3272172f0f3500010284c0,Chrome 87.0.4280.88,recognition,3,SS1,46,1324.2200000095181,def_new,new,high,old,1,0,0,recog_trial,SS1,4,2,2,grocery store.png,pred,6,3,2,strawberriesA.png,target
19/07/2021 20:06:44,19/07/2021 16:06:44,56975,3,4297922,5c3272172f0f3500010284c0,Chrome 87.0.4280.88,recognition,3,SS1,47,1471.3650000048801,maybe_new,new,low,old,1,0,0,recog_trial,SS1,2,1,2,pet store.png,rand,6,1,2,platypusA.png,target
19/07/2021 20:06:47,19/07/2021 16:06:46,56975,3,4297922,5c3272172f0f3500010284c0,Chrome 87.0.4280.88,recognition,3,SS1,48,1172.0750000094995,def_old,old,high,new,1,0,0,recog_trial,SS1,8,4,2,grocery store.png,pred,2,4,2,lemonB.png,lure
19/07/2021 20:06:49,19/07/2021 16:06:48,56975,3,4297922,5c3272172f0f3500010284c0,Chrome 87.0.4280.88,recognition,3,SS1,49,1108.0800000345334,def_old,old,high,new,1,0,0,recog_trial,SS1,6,3,3,grocery store.png,pred,6,3,2,celeryB.png,lure
19/07/2021 20:06:51,19/07/2021 16:06:51,56975,3,4297922,5c3272172f0f3500010284c0,Chrome 87.0.4280.88,recognition,3,SS1,50,1334.2999999877065,maybe_new,new,low,new,1,1,0,recog_trial,SS1,3,2,2,pet store.png,rand,1,4,2,chickenB.png,lure
19/07/2021 20:06:53,19/07/2021 16:06:53,56975,3,4297922,5c3272172f0f3500010284c0,Chrome 87.0.4280.88,recognition,3,SS1,51,1362.5500000198372,maybe_old,old,low,old,1,1,0,recog_trial,SS1,7,4,3,pet store.png,rand,6,1,2,koalaA.png,target
19/07/2021 20:06:56,19/07/2021 16:06:55,56975,3,4297922,5c3272172f0f3500010284c0,Chrome 87.0.4280.88,recognition,3,SS1,52,1153.0749999801628,maybe_old,old,low,new,1,0,0,recog_trial,SS1,7,4,1,grocery store.png,pred,5,2,2,butterB.png,lure
19/07/2021 20:07:03,19/07/2021 16:07:02,56975,3,4297922,5c3272172f0f3500010284c0,Chrome 87.0.4280.88,recognition,3,SS1,54,1584.915000014007,maybe_new,new,low,old,1,0,0,recog_trial,SS1,6,3,3,grocery store.png,pred,5,2,3,eggA.png,target
