"utc_date","local_date","exp_id","exp_ver","id","prolific_id","browser","task","task_ver","gorilla_counterbalance","trial_row","rt","response","attempt","accuracy","dishonest","display","counterbalance_order","list","event","condition","event_name","seq_pos","spatial_pos","recon_correct","spatial_stim","spatial_correct","temp_conf"
"13/04/2021 15:03:09","13/04/2021 11:03:12",48742,5,3598281,"5e3adfc595ff562fbdd130fa","Edge 89.0.774.75","retrieval_b1",2,"SS5",30,2301.18999999831,4,1,1,0,"spatial_trial","SS5",1,4,"rand","pet store.png",6,4,NA,"hippo.png",4,NA
"13/04/2021 15:03:12","13/04/2021 11:03:15",48742,5,3598281,"5e3adfc595ff562fbdd130fa","Edge 89.0.774.75","retrieval_b1",2,"SS5",23,1982.06500000379,2,1,1,0,"spatial_trial","SS5",1,2,"pred","grocery store.png",5,2,NA,"guava.png",2,NA
"13/04/2021 15:03:14","13/04/2021 11:03:17",48742,5,3598281,"5e3adfc595ff562fbdd130fa","Edge 89.0.774.75","retrieval_b1",2,"SS5",21,960.409999999683,3,1,1,0,"spatial_trial","SS5",1,2,"pred","grocery store.png",3,3,NA,"coffee.png",3,NA
"13/04/2021 15:03:16","13/04/2021 11:03:19",48742,5,3598281,"5e3adfc595ff562fbdd130fa","Edge 89.0.774.75","retrieval_b1",2,"SS5",26,1015.13999999588,4,1,1,0,"spatial_trial","SS5",1,4,"rand","pet store.png",2,4,NA,"ferret.png",4,NA
"13/04/2021 15:03:18","13/04/2021 11:03:21",48742,5,3598281,"5e3adfc595ff562fbdd130fa","Edge 89.0.774.75","retrieval_b1",2,"SS5",24,1321.43500000529,3,1,1,0,"spatial_trial","SS5",1,2,"pred","grocery store.png",6,3,NA,"nachos.png",3,NA
"13/04/2021 15:03:20","13/04/2021 11:03:23",48742,5,3598281,"5e3adfc595ff562fbdd130fa","Edge 89.0.774.75","retrieval_b1",2,"SS5",29,938.700000006065,1,1,1,0,"spatial_trial","SS5",1,4,"rand","pet store.png",5,1,NA,"pug.png",1,NA
"13/04/2021 15:03:22","13/04/2021 11:03:25",48742,5,3598281,"5e3adfc595ff562fbdd130fa","Edge 89.0.774.75","retrieval_b1",2,"SS5",27,821.059999994759,1,1,1,0,"spatial_trial","SS5",1,4,"rand","pet store.png",3,1,NA,"owl.png",1,NA
"13/04/2021 15:03:24","13/04/2021 11:03:27",48742,5,3598281,"5e3adfc595ff562fbdd130fa","Edge 89.0.774.75","retrieval_b1",2,"SS5",20,923.060000000987,4,1,1,0,"spatial_trial","SS5",1,2,"pred","grocery store.png",2,4,NA,"popcornshrimp.png",4,NA
"13/04/2021 15:03:26","13/04/2021 11:03:29",48742,5,3598281,"5e3adfc595ff562fbdd130fa","Edge 89.0.774.75","retrieval_b1",2,"SS5",25,990.384999997332,3,1,1,0,"spatial_trial","SS5",1,4,"rand","pet store.png",1,3,NA,"parrot.png",3,NA
"13/04/2021 15:03:29","13/04/2021 11:03:31",48742,5,3598281,"5e3adfc595ff562fbdd130fa","Edge 89.0.774.75","retrieval_b1",2,"SS5",22,1340.67499999946,4,1,1,0,"spatial_trial","SS5",1,2,"pred","grocery store.png",4,4,NA,"cabbage.png",4,NA
"13/04/2021 15:03:31","13/04/2021 11:03:34",48742,5,3598281,"5e3adfc595ff562fbdd130fa","Edge 89.0.774.75","retrieval_b1",2,"SS5",28,2028.74000000156,2,1,1,0,"spatial_trial","SS5",1,4,"rand","pet store.png",4,2,NA,"pig.png",2,NA
"13/04/2021 15:03:33","13/04/2021 11:03:36",48742,5,3598281,"5e3adfc595ff562fbdd130fa","Edge 89.0.774.75","retrieval_b1",2,"SS5",19,989.71999999776,1,1,1,0,"spatial_trial","SS5",1,2,"pred","grocery store.png",1,1,NA,"watermelon.png",1,NA
"13/04/2021 15:07:04","13/04/2021 11:07:07",48742,5,3598281,"5e3adfc595ff562fbdd130fa","Edge 89.0.774.75","retrieval_b2",2,"SS5",24,2083.71999999508,3,1,1,0,"spatial_trial","SS5",2,3,"pred","grocery store.png",6,3,NA,"acornsquash.png",3,NA
"13/04/2021 15:07:08","13/04/2021 11:07:11",48742,5,3598281,"5e3adfc595ff562fbdd130fa","Edge 89.0.774.75","retrieval_b2",2,"SS5",30,3156.98999999586,2,1,1,0,"spatial_trial","SS5",2,4,"rand","pet store.png",6,2,NA,"rat.png",2,NA
"13/04/2021 15:07:12","13/04/2021 11:07:14",48742,5,3598281,"5e3adfc595ff562fbdd130fa","Edge 89.0.774.75","retrieval_b2",2,"SS5",25,2169.67999999906,3,1,1,0,"spatial_trial","SS5",2,4,"rand","pet store.png",1,3,NA,"deer.png",3,NA
"13/04/2021 15:07:14","13/04/2021 11:07:17",48742,5,3598281,"5e3adfc595ff562fbdd130fa","Edge 89.0.774.75","retrieval_b2",2,"SS5",23,1273.02500000224,1,1,0,0,"spatial_trial","SS5",2,3,"pred","grocery store.png",5,2,NA,"bellpeppers.png",2,NA
"13/04/2021 15:07:18","13/04/2021 11:07:20",48742,5,3598281,"5e3adfc595ff562fbdd130fa","Edge 89.0.774.75","retrieval_b2",2,"SS5",29,2890.75500000035,2,1,0,0,"spatial_trial","SS5",2,4,"rand","pet store.png",5,4,NA,"turkey.png",4,NA
"13/04/2021 15:07:20","13/04/2021 11:07:23",48742,5,3598281,"5e3adfc595ff562fbdd130fa","Edge 89.0.774.75","retrieval_b2",2,"SS5",27,1348.10000000289,2,1,1,0,"spatial_trial","SS5",2,4,"rand","pet store.png",3,2,NA,"eagle.png",2,NA
"13/04/2021 15:07:22","13/04/2021 11:07:25",48742,5,3598281,"5e3adfc595ff562fbdd130fa","Edge 89.0.774.75","retrieval_b2",2,"SS5",22,805.515000000014,4,1,1,0,"spatial_trial","SS5",2,3,"pred","grocery store.png",4,4,NA,"lemon.png",4,NA
"13/04/2021 15:07:24","13/04/2021 11:07:26",48742,5,3598281,"5e3adfc595ff562fbdd130fa","Edge 89.0.774.75","retrieval_b2",2,"SS5",21,813.075000005483,3,1,1,0,"spatial_trial","SS5",2,3,"pred","grocery store.png",3,3,NA,"cantaloupe.png",3,NA
"13/04/2021 15:07:27","13/04/2021 11:07:29",48742,5,3598281,"5e3adfc595ff562fbdd130fa","Edge 89.0.774.75","retrieval_b2",2,"SS5",20,1711.09499999875,4,1,1,0,"spatial_trial","SS5",2,3,"pred","grocery store.png",2,4,NA,"cookies.png",4,NA
"13/04/2021 15:07:28","13/04/2021 11:07:31",48742,5,3598281,"5e3adfc595ff562fbdd130fa","Edge 89.0.774.75","retrieval_b2",2,"SS5",28,683.870000000752,1,1,1,0,"spatial_trial","SS5",2,4,"rand","pet store.png",4,1,NA,"panther.png",1,NA
"13/04/2021 15:07:30","13/04/2021 11:07:33",48742,5,3598281,"5e3adfc595ff562fbdd130fa","Edge 89.0.774.75","retrieval_b2",2,"SS5",19,677.354999999807,1,1,1,0,"spatial_trial","SS5",2,3,"pred","grocery store.png",1,1,NA,"mustard.png",1,NA
"13/04/2021 15:07:32","13/04/2021 11:07:34",48742,5,3598281,"5e3adfc595ff562fbdd130fa","Edge 89.0.774.75","retrieval_b2",2,"SS5",26,779.654999998456,1,1,1,0,"spatial_trial","SS5",2,4,"rand","pet store.png",2,1,NA,"donkey.png",1,NA
"13/04/2021 15:10:53","13/04/2021 11:10:55",48742,5,3598281,"5e3adfc595ff562fbdd130fa","Edge 89.0.774.75","retrieval_b3",2,"SS5",25,1316.57500000438,2,1,1,0,"spatial_trial","SS5",3,3,"rand","pet store.png",1,2,NA,"vulture.png",2,NA
"13/04/2021 15:10:55","13/04/2021 11:10:57",48742,5,3598281,"5e3adfc595ff562fbdd130fa","Edge 89.0.774.75","retrieval_b3",2,"SS5",22,837.664999999106,4,1,1,0,"spatial_trial","SS5",3,4,"pred","grocery store.png",4,4,NA,"corn.png",4,NA
"13/04/2021 15:10:57","13/04/2021 11:10:59",48742,5,3598281,"5e3adfc595ff562fbdd130fa","Edge 89.0.774.75","retrieval_b3",2,"SS5",29,1006.76999999996,4,1,1,0,"spatial_trial","SS5",3,3,"rand","pet store.png",5,4,NA,"wolf.png",4,NA
"13/04/2021 15:10:59","13/04/2021 11:11:01",48742,5,3598281,"5e3adfc595ff562fbdd130fa","Edge 89.0.774.75","retrieval_b3",2,"SS5",21,788.234999999986,3,1,1,0,"spatial_trial","SS5",3,4,"pred","grocery store.png",3,3,NA,"blackpepper.png",3,NA
"13/04/2021 15:11:00","13/04/2021 11:11:03",48742,5,3598281,"5e3adfc595ff562fbdd130fa","Edge 89.0.774.75","retrieval_b3",2,"SS5",24,769.585000001825,3,1,1,0,"spatial_trial","SS5",3,4,"pred","grocery store.png",6,3,NA,"sandwich.png",3,NA
"13/04/2021 15:11:02","13/04/2021 11:11:05",48742,5,3598281,"5e3adfc595ff562fbdd130fa","Edge 89.0.774.75","retrieval_b3",2,"SS5",28,973.039999997127,3,1,1,0,"spatial_trial","SS5",3,3,"rand","pet store.png",4,3,NA,"badger.png",3,NA
"13/04/2021 15:11:04","13/04/2021 11:11:07",48742,5,3598281,"5e3adfc595ff562fbdd130fa","Edge 89.0.774.75","retrieval_b3",2,"SS5",30,713.324999996985,1,1,1,0,"spatial_trial","SS5",3,3,"rand","pet store.png",6,1,NA,"polarbear.png",1,NA
"13/04/2021 15:11:06","13/04/2021 11:11:08",48742,5,3598281,"5e3adfc595ff562fbdd130fa","Edge 89.0.774.75","retrieval_b3",2,"SS5",27,638.245000001916,1,1,1,0,"spatial_trial","SS5",3,3,"rand","pet store.png",3,1,NA,"giraffe.png",1,NA
"13/04/2021 15:11:08","13/04/2021 11:11:11",48742,5,3598281,"5e3adfc595ff562fbdd130fa","Edge 89.0.774.75","retrieval_b3",2,"SS5",20,1113.93500000122,4,1,1,0,"spatial_trial","SS5",3,4,"pred","grocery store.png",2,4,NA,"seaweed.png",4,NA
"13/04/2021 15:11:10","13/04/2021 11:11:13",48742,5,3598281,"5e3adfc595ff562fbdd130fa","Edge 89.0.774.75","retrieval_b3",2,"SS5",23,1547.43500000041,2,1,1,0,"spatial_trial","SS5",3,4,"pred","grocery store.png",5,2,NA,"burger.png",2,NA
"13/04/2021 15:11:13","13/04/2021 11:11:16",48742,5,3598281,"5e3adfc595ff562fbdd130fa","Edge 89.0.774.75","retrieval_b3",2,"SS5",26,1471.76999999647,3,1,1,0,"spatial_trial","SS5",3,3,"rand","pet store.png",2,3,NA,"cardinal.png",3,NA
"13/04/2021 15:11:15","13/04/2021 11:11:17",48742,5,3598281,"5e3adfc595ff562fbdd130fa","Edge 89.0.774.75","retrieval_b3",2,"SS5",19,757.975000000442,1,1,1,0,"spatial_trial","SS5",3,4,"pred","grocery store.png",1,1,NA,"tomato.png",1,NA
"13/04/2021 15:14:33","13/04/2021 11:14:36",48742,5,3598281,"5e3adfc595ff562fbdd130fa","Edge 89.0.774.75","retrieval_b4",2,"SS5",25,1248.34999999439,4,1,1,0,"spatial_trial","SS5",4,2,"rand","pet store.png",1,4,NA,"canadiangoose.png",4,NA
"13/04/2021 15:14:36","13/04/2021 11:14:38",48742,5,3598281,"5e3adfc595ff562fbdd130fa","Edge 89.0.774.75","retrieval_b4",2,"SS5",27,1584.87500000047,4,1,0,0,"spatial_trial","SS5",4,2,"rand","pet store.png",3,3,NA,"bat.png",3,NA
"13/04/2021 15:14:38","13/04/2021 11:14:41",48742,5,3598281,"5e3adfc595ff562fbdd130fa","Edge 89.0.774.75","retrieval_b4",2,"SS5",26,1560.77000000369,3,1,0,0,"spatial_trial","SS5",4,2,"rand","pet store.png",2,1,NA,"rabbit.png",1,NA
"13/04/2021 15:14:42","13/04/2021 11:14:45",48742,5,3598281,"5e3adfc595ff562fbdd130fa","Edge 89.0.774.75","retrieval_b4",2,"SS5",22,2759.96500000474,4,1,1,0,"spatial_trial","SS5",4,4,"pred","grocery store.png",4,4,NA,"peaches.png",4,NA
"13/04/2021 15:14:45","13/04/2021 11:14:47",48742,5,3598281,"5e3adfc595ff562fbdd130fa","Edge 89.0.774.75","retrieval_b4",2,"SS5",21,1574.87499999843,2,1,0,0,"spatial_trial","SS5",4,4,"pred","grocery store.png",3,3,NA,"beet.png",3,NA
"13/04/2021 15:14:47","13/04/2021 11:14:49",48742,5,3598281,"5e3adfc595ff562fbdd130fa","Edge 89.0.774.75","retrieval_b4",2,"SS5",28,910.990000003949,3,1,0,0,"spatial_trial","SS5",4,2,"rand","pet store.png",4,2,NA,"elephant.png",2,NA
"13/04/2021 15:14:48","13/04/2021 11:14:51",48742,5,3598281,"5e3adfc595ff562fbdd130fa","Edge 89.0.774.75","retrieval_b4",2,"SS5",20,729.939999997441,4,1,1,0,"spatial_trial","SS5",4,4,"pred","grocery store.png",2,4,NA,"egg.png",4,NA
"13/04/2021 15:14:50","13/04/2021 11:14:53",48742,5,3598281,"5e3adfc595ff562fbdd130fa","Edge 89.0.774.75","retrieval_b4",2,"SS5",30,676.50500000309,1,1,1,0,"spatial_trial","SS5",4,2,"rand","pet store.png",6,1,NA,"frog.png",1,NA
"13/04/2021 15:14:52","13/04/2021 11:14:55",48742,5,3598281,"5e3adfc595ff562fbdd130fa","Edge 89.0.774.75","retrieval_b4",2,"SS5",24,965.270000000601,3,1,1,0,"spatial_trial","SS5",4,4,"pred","grocery store.png",6,3,NA,"ramen.png",3,NA
"13/04/2021 15:14:54","13/04/2021 11:14:56",48742,5,3598281,"5e3adfc595ff562fbdd130fa","Edge 89.0.774.75","retrieval_b4",2,"SS5",23,710.339999997814,2,1,1,0,"spatial_trial","SS5",4,4,"pred","grocery store.png",5,2,NA,"bacon.png",2,NA
"13/04/2021 15:14:57","13/04/2021 11:14:59",48742,5,3598281,"5e3adfc595ff562fbdd130fa","Edge 89.0.774.75","retrieval_b4",2,"SS5",29,1730.79999999754,2,1,0,0,"spatial_trial","SS5",4,2,"rand","pet store.png",5,3,NA,"fox.png",3,NA
"13/04/2021 15:14:58","13/04/2021 11:15:01",48742,5,3598281,"5e3adfc595ff562fbdd130fa","Edge 89.0.774.75","retrieval_b4",2,"SS5",19,704.485000002023,1,1,1,0,"spatial_trial","SS5",4,4,"pred","grocery store.png",1,1,NA,"ravioli.png",1,NA
"13/04/2021 15:19:30","13/04/2021 11:19:32",48742,5,3598281,"5e3adfc595ff562fbdd130fa","Edge 89.0.774.75","retrieval_b5",2,"SS5",23,941.295000004175,2,1,1,0,"spatial_trial","SS5",5,1,"pred","grocery store.png",5,2,NA,"avocado.png",2,NA
"13/04/2021 15:19:34","13/04/2021 11:19:36",48742,5,3598281,"5e3adfc595ff562fbdd130fa","Edge 89.0.774.75","retrieval_b5",2,"SS5",24,2885.93499999843,3,1,1,0,"spatial_trial","SS5",5,1,"pred","grocery store.png",6,3,NA,"granola.png",3,NA
"13/04/2021 15:19:36","13/04/2021 11:19:38",48742,5,3598281,"5e3adfc595ff562fbdd130fa","Edge 89.0.774.75","retrieval_b5",2,"SS5",30,991.815000001225,4,1,1,0,"spatial_trial","SS5",5,3,"rand","pet store.png",6,4,NA,"shark.png",4,NA
"13/04/2021 15:19:40","13/04/2021 11:19:43",48742,5,3598281,"5e3adfc595ff562fbdd130fa","Edge 89.0.774.75","retrieval_b5",2,"SS5",22,3300.17000000225,3,1,0,0,"spatial_trial","SS5",5,1,"pred","grocery store.png",4,4,NA,"butter.png",4,NA
"13/04/2021 15:19:42","13/04/2021 11:19:44",48742,5,3598281,"5e3adfc595ff562fbdd130fa","Edge 89.0.774.75","retrieval_b5",2,"SS5",19,703.639999999723,1,1,1,0,"spatial_trial","SS5",5,1,"pred","grocery store.png",1,1,NA,"croissant.png",1,NA
"13/04/2021 15:19:43","13/04/2021 11:19:46",48742,5,3598281,"5e3adfc595ff562fbdd130fa","Edge 89.0.774.75","retrieval_b5",2,"SS5",27,782.879999998841,4,1,1,0,"spatial_trial","SS5",5,3,"rand","pet store.png",3,4,NA,"whale.png",4,NA
"13/04/2021 15:19:45","13/04/2021 11:19:48",48742,5,3598281,"5e3adfc595ff562fbdd130fa","Edge 89.0.774.75","retrieval_b5",2,"SS5",26,765.230000004522,1,1,1,0,"spatial_trial","SS5",5,3,"rand","pet store.png",2,1,NA,"hammerheadshark.png",1,NA
"13/04/2021 15:19:47","13/04/2021 11:19:50",48742,5,3598281,"5e3adfc595ff562fbdd130fa","Edge 89.0.774.75","retrieval_b5",2,"SS5",28,777.33000000444,2,1,0,0,"spatial_trial","SS5",5,3,"rand","pet store.png",4,1,NA,"crab.png",1,NA
"13/04/2021 15:19:50","13/04/2021 11:19:53",48742,5,3598281,"5e3adfc595ff562fbdd130fa","Edge 89.0.774.75","retrieval_b5",2,"SS5",21,2030.9500000003,3,1,1,0,"spatial_trial","SS5",5,1,"pred","grocery store.png",3,3,NA,"bread.png",3,NA
"13/04/2021 15:19:53","13/04/2021 11:19:55",48742,5,3598281,"5e3adfc595ff562fbdd130fa","Edge 89.0.774.75","retrieval_b5",2,"SS5",25,1505.57999999728,3,1,1,0,"spatial_trial","SS5",5,3,"rand","pet store.png",1,3,NA,"caterpillar.png",3,NA
"13/04/2021 15:19:55","13/04/2021 11:19:57",48742,5,3598281,"5e3adfc595ff562fbdd130fa","Edge 89.0.774.75","retrieval_b5",2,"SS5",29,964.649999994435,2,1,1,0,"spatial_trial","SS5",5,3,"rand","pet store.png",5,2,NA,"panda.png",2,NA
"13/04/2021 15:20:00","13/04/2021 11:20:02",48742,5,3598281,"5e3adfc595ff562fbdd130fa","Edge 89.0.774.75","retrieval_b5",2,"SS5",20,3984.11999999371,4,1,1,0,"spatial_trial","SS5",5,1,"pred","grocery store.png",2,4,NA,"bagel.png",4,NA
"13/04/2021 15:23:17","13/04/2021 11:23:20",48742,5,3598281,"5e3adfc595ff562fbdd130fa","Edge 89.0.774.75","retrieval_b6",2,"SS5",20,872.190000001865,4,1,1,0,"spatial_trial","SS5",6,2,"pred","grocery store.png",2,4,NA,"donut.png",4,NA
"13/04/2021 15:23:19","13/04/2021 11:23:21",48742,5,3598281,"5e3adfc595ff562fbdd130fa","Edge 89.0.774.75","retrieval_b6",2,"SS5",21,788.01999999996,3,1,1,0,"spatial_trial","SS5",6,2,"pred","grocery store.png",3,3,NA,"jalapeno.png",3,NA
"13/04/2021 15:23:24","13/04/2021 11:23:26",48742,5,3598281,"5e3adfc595ff562fbdd130fa","Edge 89.0.774.75","retrieval_b6",2,"SS5",24,3779.87500000017,2,1,0,0,"spatial_trial","SS5",6,2,"pred","grocery store.png",6,3,NA,"pineapple.png",3,NA
"13/04/2021 15:23:25","13/04/2021 11:23:28",48742,5,3598281,"5e3adfc595ff562fbdd130fa","Edge 89.0.774.75","retrieval_b6",2,"SS5",29,739.325000002282,4,1,1,0,"spatial_trial","SS5",6,1,"rand","pet store.png",5,4,NA,"dragonfly.png",4,NA
"13/04/2021 15:23:27","13/04/2021 11:23:30",48742,5,3598281,"5e3adfc595ff562fbdd130fa","Edge 89.0.774.75","retrieval_b6",2,"SS5",23,932.680000005348,2,1,1,0,"spatial_trial","SS5",6,2,"pred","grocery store.png",5,2,NA,"soup.png",2,NA
"13/04/2021 15:23:30","13/04/2021 11:23:33",48742,5,3598281,"5e3adfc595ff562fbdd130fa","Edge 89.0.774.75","retrieval_b6",2,"SS5",28,2120.26000000333,3,1,1,0,"spatial_trial","SS5",6,1,"rand","pet store.png",4,3,NA,"manatee.png",3,NA
"13/04/2021 15:23:32","13/04/2021 11:23:35",48742,5,3598281,"5e3adfc595ff562fbdd130fa","Edge 89.0.774.75","retrieval_b6",2,"SS5",26,839.56500000204,1,1,1,0,"spatial_trial","SS5",6,1,"rand","pet store.png",2,1,NA,"bison.png",1,NA
"13/04/2021 15:23:34","13/04/2021 11:23:37",48742,5,3598281,"5e3adfc595ff562fbdd130fa","Edge 89.0.774.75","retrieval_b6",2,"SS5",22,740.365000005113,4,1,1,0,"spatial_trial","SS5",6,2,"pred","grocery store.png",4,4,NA,"smores.png",4,NA
"13/04/2021 15:23:36","13/04/2021 11:23:38",48742,5,3598281,"5e3adfc595ff562fbdd130fa","Edge 89.0.774.75","retrieval_b6",2,"SS5",19,682.714999995369,1,1,1,0,"spatial_trial","SS5",6,2,"pred","grocery store.png",1,1,NA,"garlic.png",1,NA
"13/04/2021 15:23:39","13/04/2021 11:23:41",48742,5,3598281,"5e3adfc595ff562fbdd130fa","Edge 89.0.774.75","retrieval_b6",2,"SS5",25,1913.7699999992,2,1,1,0,"spatial_trial","SS5",6,1,"rand","pet store.png",1,2,NA,"camel.png",2,NA
"13/04/2021 15:23:40","13/04/2021 11:23:43",48742,5,3598281,"5e3adfc595ff562fbdd130fa","Edge 89.0.774.75","retrieval_b6",2,"SS5",30,709.540000003472,1,1,1,0,"spatial_trial","SS5",6,1,"rand","pet store.png",6,1,NA,"mantis.png",1,NA
"13/04/2021 15:23:42","13/04/2021 11:23:45",48742,5,3598281,"5e3adfc595ff562fbdd130fa","Edge 89.0.774.75","retrieval_b6",2,"SS5",27,669.694999996864,4,1,1,0,"spatial_trial","SS5",6,1,"rand","pet store.png",3,4,NA,"beetle.png",4,NA
"13/04/2021 15:27:04","13/04/2021 11:27:07",48742,5,3598281,"5e3adfc595ff562fbdd130fa","Edge 89.0.774.75","retrieval_b7",2,"SS5",28,3056.44000000029,4,1,1,0,"spatial_trial","SS5",7,2,"rand","pet store.png",4,4,NA,"cheetah.png",4,NA
"13/04/2021 15:27:06","13/04/2021 11:27:09",48742,5,3598281,"5e3adfc595ff562fbdd130fa","Edge 89.0.774.75","retrieval_b7",2,"SS5",20,1001.42000000051,4,1,1,0,"spatial_trial","SS5",7,1,"pred","grocery store.png",2,4,NA,"asparagus.png",4,NA
"13/04/2021 15:27:10","13/04/2021 11:27:12",48742,5,3598281,"5e3adfc595ff562fbdd130fa","Edge 89.0.774.75","retrieval_b7",2,"SS5",26,2334.69000000332,3,1,1,0,"spatial_trial","SS5",7,2,"rand","pet store.png",2,3,NA,"horse.png",3,NA
"13/04/2021 15:27:12","13/04/2021 11:27:14",48742,5,3598281,"5e3adfc595ff562fbdd130fa","Edge 89.0.774.75","retrieval_b7",2,"SS5",23,1005.70000000153,2,1,1,0,"spatial_trial","SS5",7,1,"pred","grocery store.png",5,2,NA,"brusselsprouts.png",2,NA
"13/04/2021 15:27:13","13/04/2021 11:27:16",48742,5,3598281,"5e3adfc595ff562fbdd130fa","Edge 89.0.774.75","retrieval_b7",2,"SS5",19,687.375000001339,1,1,1,0,"spatial_trial","SS5",7,1,"pred","grocery store.png",1,1,NA,"grapes.png",1,NA
"13/04/2021 15:27:17","13/04/2021 11:27:20",48742,5,3598281,"5e3adfc595ff562fbdd130fa","Edge 89.0.774.75","retrieval_b7",2,"SS5",27,2677.18500000046,1,1,1,0,"spatial_trial","SS5",7,2,"rand","pet store.png",3,1,NA,"squid.png",1,NA
"13/04/2021 15:27:19","13/04/2021 11:27:22",48742,5,3598281,"5e3adfc595ff562fbdd130fa","Edge 89.0.774.75","retrieval_b7",2,"SS5",21,878.824999999779,3,1,1,0,"spatial_trial","SS5",7,1,"pred","grocery store.png",3,3,NA,"fortunecookie.png",3,NA
"13/04/2021 15:27:21","13/04/2021 11:27:24",48742,5,3598281,"5e3adfc595ff562fbdd130fa","Edge 89.0.774.75","retrieval_b7",2,"SS5",25,795.434999999998,2,1,1,0,"spatial_trial","SS5",7,2,"rand","pet store.png",1,2,NA,"seahorse.png",2,NA
"13/04/2021 15:27:23","13/04/2021 11:27:25",48742,5,3598281,"5e3adfc595ff562fbdd130fa","Edge 89.0.774.75","retrieval_b7",2,"SS5",22,679.284999998345,4,1,1,0,"spatial_trial","SS5",7,1,"pred","grocery store.png",4,4,NA,"milk.png",4,NA
"13/04/2021 15:27:25","13/04/2021 11:27:27",48742,5,3598281,"5e3adfc595ff562fbdd130fa","Edge 89.0.774.75","retrieval_b7",2,"SS5",30,1066.5749999971,3,1,1,0,"spatial_trial","SS5",7,2,"rand","pet store.png",6,3,NA,"lion.png",3,NA
"13/04/2021 15:27:28","13/04/2021 11:27:31",48742,5,3598281,"5e3adfc595ff562fbdd130fa","Edge 89.0.774.75","retrieval_b7",2,"SS5",29,2524.53499999683,2,1,0,0,"spatial_trial","SS5",7,2,"rand","pet store.png",5,1,NA,"squirrel.png",1,NA
"13/04/2021 15:27:33","13/04/2021 11:27:35",48742,5,3598281,"5e3adfc595ff562fbdd130fa","Edge 89.0.774.75","retrieval_b7",2,"SS5",24,3107.06000000209,3,1,1,0,"spatial_trial","SS5",7,1,"pred","grocery store.png",6,3,NA,"icecreamsandwich.png",3,NA
"13/04/2021 15:30:46","13/04/2021 11:30:48",48742,5,3598281,"5e3adfc595ff562fbdd130fa","Edge 89.0.774.75","retrieval_b8",2,"SS5",27,1655.86500000063,4,1,1,0,"spatial_trial","SS5",8,1,"rand","pet store.png",3,4,NA,"flamingo.png",4,NA
"13/04/2021 15:30:47","13/04/2021 11:30:50",48742,5,3598281,"5e3adfc595ff562fbdd130fa","Edge 89.0.774.75","retrieval_b8",2,"SS5",19,808.444999995118,1,1,1,0,"spatial_trial","SS5",8,3,"pred","grocery store.png",1,1,NA,"carrots.png",1,NA
"13/04/2021 15:30:49","13/04/2021 11:30:52",48742,5,3598281,"5e3adfc595ff562fbdd130fa","Edge 89.0.774.75","retrieval_b8",2,"SS5",26,1142.25000000442,2,1,1,0,"spatial_trial","SS5",8,1,"rand","pet store.png",2,2,NA,"toad.png",2,NA
"13/04/2021 15:30:51","13/04/2021 11:30:54",48742,5,3598281,"5e3adfc595ff562fbdd130fa","Edge 89.0.774.75","retrieval_b8",2,"SS5",20,688.270000006014,4,1,1,0,"spatial_trial","SS5",8,3,"pred","grocery store.png",2,4,NA,"waffle.png",4,NA
"13/04/2021 15:30:53","13/04/2021 11:30:56",48742,5,3598281,"5e3adfc595ff562fbdd130fa","Edge 89.0.774.75","retrieval_b8",2,"SS5",21,809.655000004568,3,1,1,0,"spatial_trial","SS5",8,3,"pred","grocery store.png",3,3,NA,"pomegranate.png",3,NA
"13/04/2021 15:30:55","13/04/2021 11:30:58",48742,5,3598281,"5e3adfc595ff562fbdd130fa","Edge 89.0.774.75","retrieval_b8",2,"SS5",25,945.514999999432,3,1,1,0,"spatial_trial","SS5",8,1,"rand","pet store.png",1,3,NA,"pelican.png",3,NA
"13/04/2021 15:30:57","13/04/2021 11:31:00",48742,5,3598281,"5e3adfc595ff562fbdd130fa","Edge 89.0.774.75","retrieval_b8",2,"SS5",28,1089.75500000088,2,1,0,0,"spatial_trial","SS5",8,1,"rand","pet store.png",4,1,NA,"snail.png",1,NA
"13/04/2021 15:30:59","13/04/2021 11:31:02",48742,5,3598281,"5e3adfc595ff562fbdd130fa","Edge 89.0.774.75","retrieval_b8",2,"SS5",30,827.664999997069,2,1,1,0,"spatial_trial","SS5",8,1,"rand","pet store.png",6,2,NA,"hummingbird.png",2,NA
"13/04/2021 15:31:01","13/04/2021 11:31:04",48742,5,3598281,"5e3adfc595ff562fbdd130fa","Edge 89.0.774.75","retrieval_b8",2,"SS5",29,1219.24500000023,4,1,1,0,"spatial_trial","SS5",8,1,"rand","pet store.png",5,4,NA,"iguana.png",4,NA
"13/04/2021 15:31:03","13/04/2021 11:31:06",48742,5,3598281,"5e3adfc595ff562fbdd130fa","Edge 89.0.774.75","retrieval_b8",2,"SS5",23,850.515000005544,2,1,1,0,"spatial_trial","SS5",8,3,"pred","grocery store.png",5,2,NA,"oliveoil.png",2,NA
"13/04/2021 15:31:05","13/04/2021 11:31:08",48742,5,3598281,"5e3adfc595ff562fbdd130fa","Edge 89.0.774.75","retrieval_b8",2,"SS5",22,1295.93499999464,4,1,1,0,"spatial_trial","SS5",8,3,"pred","grocery store.png",4,4,NA,"potatochips.png",4,NA
"13/04/2021 15:31:07","13/04/2021 11:31:10",48742,5,3598281,"5e3adfc595ff562fbdd130fa","Edge 89.0.774.75","retrieval_b8",2,"SS5",24,961.295000000973,4,1,0,0,"spatial_trial","SS5",8,3,"pred","grocery store.png",6,3,NA,"honeycomb.png",3,NA
"13/04/2021 23:33:51","13/04/2021 18:33:51",48742,5,3601810,"5a1f24609b760100013a8c1b","Chrome 89.0.4389.114","retrieval_b1",2,"SS6",20,1300.98499999986,4,1,1,0,"spatial_trial","SS6",1,2,"pred","pet store.png",2,4,NA,"boar.png",4,NA
"13/04/2021 23:33:53","13/04/2021 18:33:53",48742,5,3601810,"5a1f24609b760100013a8c1b","Chrome 89.0.4389.114","retrieval_b1",2,"SS6",29,936.419999999998,4,1,1,0,"spatial_trial","SS6",1,1,"rand","grocery store.png",5,4,NA,"acaibowl.png",4,NA
"13/04/2021 23:33:55","13/04/2021 18:33:55",48742,5,3601810,"5a1f24609b760100013a8c1b","Chrome 89.0.4389.114","retrieval_b1",2,"SS6",26,1169.60500000005,2,1,1,0,"spatial_trial","SS6",1,1,"rand","grocery store.png",2,2,NA,"taco.png",2,NA
"13/04/2021 23:33:57","13/04/2021 18:33:57",48742,5,3601810,"5a1f24609b760100013a8c1b","Chrome 89.0.4389.114","retrieval_b1",2,"SS6",24,971.730000000207,3,1,1,0,"spatial_trial","SS6",1,2,"pred","pet store.png",6,3,NA,"tortoise.png",3,NA
"13/04/2021 23:33:59","13/04/2021 18:33:59",48742,5,3601810,"5a1f24609b760100013a8c1b","Chrome 89.0.4389.114","retrieval_b1",2,"SS6",23,863.610000000335,2,1,1,0,"spatial_trial","SS6",1,2,"pred","pet store.png",5,2,NA,"lion.png",2,NA
"13/04/2021 23:34:01","13/04/2021 18:34:01",48742,5,3601810,"5a1f24609b760100013a8c1b","Chrome 89.0.4389.114","retrieval_b1",2,"SS6",22,952.180000000226,4,1,1,0,"spatial_trial","SS6",1,2,"pred","pet store.png",4,4,NA,"bison.png",4,NA
"13/04/2021 23:34:03","13/04/2021 18:34:03",48742,5,3601810,"5a1f24609b760100013a8c1b","Chrome 89.0.4389.114","retrieval_b1",2,"SS6",27,830.419999999322,4,1,1,0,"spatial_trial","SS6",1,1,"rand","grocery store.png",3,4,NA,"garlic.png",4,NA
"13/04/2021 23:34:05","13/04/2021 18:34:05",48742,5,3601810,"5a1f24609b760100013a8c1b","Chrome 89.0.4389.114","retrieval_b1",2,"SS6",30,1024.69999999994,2,1,1,0,"spatial_trial","SS6",1,1,"rand","grocery store.png",6,2,NA,"rice.png",2,NA
"13/04/2021 23:34:07","13/04/2021 18:34:07",48742,5,3601810,"5a1f24609b760100013a8c1b","Chrome 89.0.4389.114","retrieval_b1",2,"SS6",28,862.830000000031,1,1,1,0,"spatial_trial","SS6",1,1,"rand","grocery store.png",4,1,NA,"bagel.png",1,NA
"13/04/2021 23:34:09","13/04/2021 18:34:09",48742,5,3601810,"5a1f24609b760100013a8c1b","Chrome 89.0.4389.114","retrieval_b1",2,"SS6",21,975.035000000382,1,1,0,0,"spatial_trial","SS6",1,2,"pred","pet store.png",3,3,NA,"canadiangoose.png",3,NA
"13/04/2021 23:34:11","13/04/2021 18:34:11",48742,5,3601810,"5a1f24609b760100013a8c1b","Chrome 89.0.4389.114","retrieval_b1",2,"SS6",19,1174.37500000049,2,1,0,0,"spatial_trial","SS6",1,2,"pred","pet store.png",1,1,NA,"pangolin.png",1,NA
"13/04/2021 23:34:13","13/04/2021 18:34:13",48742,5,3601810,"5a1f24609b760100013a8c1b","Chrome 89.0.4389.114","retrieval_b1",2,"SS6",25,1009.42499999928,3,1,1,0,"spatial_trial","SS6",1,1,"rand","grocery store.png",1,3,NA,"granola.png",3,NA
"13/04/2021 23:37:33","13/04/2021 18:37:33",48742,5,3601810,"5a1f24609b760100013a8c1b","Chrome 89.0.4389.114","retrieval_b2",2,"SS6",29,983.229999999821,2,1,1,0,"spatial_trial","SS6",2,4,"rand","grocery store.png",5,2,NA,"cherries.png",2,NA
"13/04/2021 23:37:36","13/04/2021 18:37:36",48742,5,3601810,"5a1f24609b760100013a8c1b","Chrome 89.0.4389.114","retrieval_b2",2,"SS6",27,1342.67,4,1,1,0,"spatial_trial","SS6",2,4,"rand","grocery store.png",3,4,NA,"tomato.png",4,NA
"13/04/2021 23:37:38","13/04/2021 18:37:37",48742,5,3601810,"5a1f24609b760100013a8c1b","Chrome 89.0.4389.114","retrieval_b2",2,"SS6",30,847.934999999779,4,1,1,0,"spatial_trial","SS6",2,4,"rand","grocery store.png",6,4,NA,"gummybears.png",4,NA
"13/04/2021 23:37:39","13/04/2021 18:37:39",48742,5,3601810,"5a1f24609b760100013a8c1b","Chrome 89.0.4389.114","retrieval_b2",2,"SS6",28,616.339999999582,1,1,1,0,"spatial_trial","SS6",2,4,"rand","grocery store.png",4,1,NA,"pretzel.png",1,NA
"13/04/2021 23:37:41","13/04/2021 18:37:41",48742,5,3601810,"5a1f24609b760100013a8c1b","Chrome 89.0.4389.114","retrieval_b2",2,"SS6",19,851.829999999609,1,1,1,0,"spatial_trial","SS6",2,2,"pred","pet store.png",1,1,NA,"rabbit.png",1,NA
"13/04/2021 23:37:43","13/04/2021 18:37:43",48742,5,3601810,"5a1f24609b760100013a8c1b","Chrome 89.0.4389.114","retrieval_b2",2,"SS6",24,1026.16000000035,3,1,1,0,"spatial_trial","SS6",2,2,"pred","pet store.png",6,3,NA,"toucan.png",3,NA
"13/04/2021 23:37:45","13/04/2021 18:37:45",48742,5,3601810,"5a1f24609b760100013a8c1b","Chrome 89.0.4389.114","retrieval_b2",2,"SS6",23,953.085000000101,2,1,1,0,"spatial_trial","SS6",2,2,"pred","pet store.png",5,2,NA,"turkey.png",2,NA
"13/04/2021 23:37:47","13/04/2021 18:37:47",48742,5,3601810,"5a1f24609b760100013a8c1b","Chrome 89.0.4389.114","retrieval_b2",2,"SS6",21,792.234999999891,3,1,1,0,"spatial_trial","SS6",2,2,"pred","pet store.png",3,3,NA,"camel.png",3,NA
"13/04/2021 23:37:49","13/04/2021 18:37:49",48742,5,3601810,"5a1f24609b760100013a8c1b","Chrome 89.0.4389.114","retrieval_b2",2,"SS6",25,790.694999999687,3,1,1,0,"spatial_trial","SS6",2,4,"rand","grocery store.png",1,3,NA,"sandwich.png",3,NA
"13/04/2021 23:37:51","13/04/2021 18:37:51",48742,5,3601810,"5a1f24609b760100013a8c1b","Chrome 89.0.4389.114","retrieval_b2",2,"SS6",22,1182.82999999974,4,1,1,0,"spatial_trial","SS6",2,2,"pred","pet store.png",4,4,NA,"ostrich.png",4,NA
"13/04/2021 23:37:53","13/04/2021 18:37:52",48742,5,3601810,"5a1f24609b760100013a8c1b","Chrome 89.0.4389.114","retrieval_b2",2,"SS6",26,668.590000000222,1,1,1,0,"spatial_trial","SS6",2,4,"rand","grocery store.png",2,1,NA,"mushrooms.png",1,NA
"13/04/2021 23:37:54","13/04/2021 18:37:54",48742,5,3601810,"5a1f24609b760100013a8c1b","Chrome 89.0.4389.114","retrieval_b2",2,"SS6",20,832.644999999502,4,1,1,0,"spatial_trial","SS6",2,2,"pred","pet store.png",2,4,NA,"koala.png",4,NA
"13/04/2021 23:41:17","13/04/2021 18:41:17",48742,5,3601810,"5a1f24609b760100013a8c1b","Chrome 89.0.4389.114","retrieval_b3",2,"SS6",26,1025.46000000075,2,1,1,0,"spatial_trial","SS6",3,1,"rand","grocery store.png",2,2,NA,"burger.png",2,NA
"13/04/2021 23:41:19","13/04/2021 18:41:19",48742,5,3601810,"5a1f24609b760100013a8c1b","Chrome 89.0.4389.114","retrieval_b3",2,"SS6",30,815.249999999651,2,1,1,0,"spatial_trial","SS6",3,1,"rand","grocery store.png",6,2,NA,"celery.png",2,NA
"13/04/2021 23:41:21","13/04/2021 18:41:21",48742,5,3601810,"5a1f24609b760100013a8c1b","Chrome 89.0.4389.114","retrieval_b3",2,"SS6",27,864.220000000387,3,1,1,0,"spatial_trial","SS6",3,1,"rand","grocery store.png",3,3,NA,"egg.png",3,NA
"13/04/2021 23:41:23","13/04/2021 18:41:23",48742,5,3601810,"5a1f24609b760100013a8c1b","Chrome 89.0.4389.114","retrieval_b3",2,"SS6",22,1044.84500000035,4,1,1,0,"spatial_trial","SS6",3,3,"pred","pet store.png",4,4,NA,"tiger.png",4,NA
"13/04/2021 23:41:25","13/04/2021 18:41:25",48742,5,3601810,"5a1f24609b760100013a8c1b","Chrome 89.0.4389.114","retrieval_b3",2,"SS6",21,1325.15999999941,1,1,0,0,"spatial_trial","SS6",3,3,"pred","pet store.png",3,3,NA,"owl.png",3,NA
"13/04/2021 23:41:27","13/04/2021 18:41:27",48742,5,3601810,"5a1f24609b760100013a8c1b","Chrome 89.0.4389.114","retrieval_b3",2,"SS6",20,938.720000000103,4,1,1,0,"spatial_trial","SS6",3,3,"pred","pet store.png",2,4,NA,"stingray.png",4,NA
"13/04/2021 23:41:29","13/04/2021 18:41:29",48742,5,3601810,"5a1f24609b760100013a8c1b","Chrome 89.0.4389.114","retrieval_b3",2,"SS6",23,894.694999999956,2,1,1,0,"spatial_trial","SS6",3,3,"pred","pet store.png",5,2,NA,"kangaroo.png",2,NA
"13/04/2021 23:41:31","13/04/2021 18:41:31",48742,5,3601810,"5a1f24609b760100013a8c1b","Chrome 89.0.4389.114","retrieval_b3",2,"SS6",25,837.695000000167,4,1,1,0,"spatial_trial","SS6",3,1,"rand","grocery store.png",1,4,NA,"bakedpotato.png",4,NA
"13/04/2021 23:41:33","13/04/2021 18:41:33",48742,5,3601810,"5a1f24609b760100013a8c1b","Chrome 89.0.4389.114","retrieval_b3",2,"SS6",29,792.615000000296,3,1,1,0,"spatial_trial","SS6",3,1,"rand","grocery store.png",5,3,NA,"seaweed.png",3,NA
"13/04/2021 23:41:35","13/04/2021 18:41:35",48742,5,3601810,"5a1f24609b760100013a8c1b","Chrome 89.0.4389.114","retrieval_b3",2,"SS6",19,1071.48500000039,2,1,0,0,"spatial_trial","SS6",3,3,"pred","pet store.png",1,1,NA,"vulture.png",1,NA
"13/04/2021 23:41:37","13/04/2021 18:41:36",48742,5,3601810,"5a1f24609b760100013a8c1b","Chrome 89.0.4389.114","retrieval_b3",2,"SS6",24,745.089999999436,3,1,1,0,"spatial_trial","SS6",3,3,"pred","pet store.png",6,3,NA,"surgeonfish.png",3,NA
"13/04/2021 23:41:38","13/04/2021 18:41:38",48742,5,3601810,"5a1f24609b760100013a8c1b","Chrome 89.0.4389.114","retrieval_b3",2,"SS6",28,799.809999999525,1,1,1,0,"spatial_trial","SS6",3,1,"rand","grocery store.png",4,1,NA,"lychee.png",1,NA
"13/04/2021 23:45:08","13/04/2021 18:45:07",48742,5,3601810,"5a1f24609b760100013a8c1b","Chrome 89.0.4389.114","retrieval_b4",2,"SS6",21,1581.65000000008,2,1,0,0,"spatial_trial","SS6",4,1,"pred","pet store.png",3,3,NA,"zebra.png",3,NA
"13/04/2021 23:45:09","13/04/2021 18:45:09",48742,5,3601810,"5a1f24609b760100013a8c1b","Chrome 89.0.4389.114","retrieval_b4",2,"SS6",19,1180.22000000019,1,1,1,0,"spatial_trial","SS6",4,1,"pred","pet store.png",1,1,NA,"turtle.png",1,NA
"13/04/2021 23:45:11","13/04/2021 18:45:11",48742,5,3601810,"5a1f24609b760100013a8c1b","Chrome 89.0.4389.114","retrieval_b4",2,"SS6",30,1004.89000000016,1,1,1,0,"spatial_trial","SS6",4,3,"rand","grocery store.png",6,1,NA,"clams.png",1,NA
"13/04/2021 23:45:13","13/04/2021 18:45:13",48742,5,3601810,"5a1f24609b760100013a8c1b","Chrome 89.0.4389.114","retrieval_b4",2,"SS6",23,794.590000000426,2,1,1,0,"spatial_trial","SS6",4,1,"pred","pet store.png",5,2,NA,"mantis.png",2,NA
"13/04/2021 23:45:15","13/04/2021 18:45:15",48742,5,3601810,"5a1f24609b760100013a8c1b","Chrome 89.0.4389.114","retrieval_b4",2,"SS6",24,763.124999999491,3,1,1,0,"spatial_trial","SS6",4,1,"pred","pet store.png",6,3,NA,"pufferfish.png",3,NA
"13/04/2021 23:45:17","13/04/2021 18:45:17",48742,5,3601810,"5a1f24609b760100013a8c1b","Chrome 89.0.4389.114","retrieval_b4",2,"SS6",27,876.295000000027,3,1,1,0,"spatial_trial","SS6",4,3,"rand","grocery store.png",3,3,NA,"ravioli.png",3,NA
"13/04/2021 23:45:19","13/04/2021 18:45:18",48742,5,3601810,"5a1f24609b760100013a8c1b","Chrome 89.0.4389.114","retrieval_b4",2,"SS6",29,729.550000000017,4,1,1,0,"spatial_trial","SS6",4,3,"rand","grocery store.png",5,4,NA,"corn.png",4,NA
"13/04/2021 23:45:20","13/04/2021 18:45:20",48742,5,3601810,"5a1f24609b760100013a8c1b","Chrome 89.0.4389.114","retrieval_b4",2,"SS6",28,810.9800000002,1,1,1,0,"spatial_trial","SS6",4,3,"rand","grocery store.png",4,1,NA,"cupnoodle.png",1,NA
"13/04/2021 23:45:23","13/04/2021 18:45:23",48742,5,3601810,"5a1f24609b760100013a8c1b","Chrome 89.0.4389.114","retrieval_b4",2,"SS6",20,1460.93500000006,4,1,1,0,"spatial_trial","SS6",4,1,"pred","pet store.png",2,4,NA,"armadillo.png",4,NA
"13/04/2021 23:45:25","13/04/2021 18:45:25",48742,5,3601810,"5a1f24609b760100013a8c1b","Chrome 89.0.4389.114","retrieval_b4",2,"SS6",26,852.335000000494,4,1,1,0,"spatial_trial","SS6",4,3,"rand","grocery store.png",2,4,NA,"basil.png",4,NA
"13/04/2021 23:45:27","13/04/2021 18:45:26",48742,5,3601810,"5a1f24609b760100013a8c1b","Chrome 89.0.4389.114","retrieval_b4",2,"SS6",25,758.095000000139,2,1,1,0,"spatial_trial","SS6",4,3,"rand","grocery store.png",1,2,NA,"salad.png",2,NA
"13/04/2021 23:45:28","13/04/2021 18:45:28",48742,5,3601810,"5a1f24609b760100013a8c1b","Chrome 89.0.4389.114","retrieval_b4",2,"SS6",22,804.715000000215,3,1,0,0,"spatial_trial","SS6",4,1,"pred","pet store.png",4,4,NA,"parrot.png",4,NA
"13/04/2021 23:49:51","13/04/2021 18:49:50",48742,5,3601810,"5a1f24609b760100013a8c1b","Chrome 89.0.4389.114","retrieval_b5",2,"SS6",30,1347.01000000041,2,1,1,0,"spatial_trial","SS6",5,2,"rand","grocery store.png",6,2,NA,"waffle.png",2,NA
"13/04/2021 23:49:53","13/04/2021 18:49:52",48742,5,3601810,"5a1f24609b760100013a8c1b","Chrome 89.0.4389.114","retrieval_b5",2,"SS6",22,839.069999999992,4,1,1,0,"spatial_trial","SS6",5,4,"pred","pet store.png",4,4,NA,"moose.png",4,NA
"13/04/2021 23:49:54","13/04/2021 18:49:54",48742,5,3601810,"5a1f24609b760100013a8c1b","Chrome 89.0.4389.114","retrieval_b5",2,"SS6",26,742.589999999836,1,1,1,0,"spatial_trial","SS6",5,2,"rand","grocery store.png",2,1,NA,"lemon.png",1,NA
"13/04/2021 23:49:56","13/04/2021 18:49:56",48742,5,3601810,"5a1f24609b760100013a8c1b","Chrome 89.0.4389.114","retrieval_b5",2,"SS6",24,812.860000000001,3,1,1,0,"spatial_trial","SS6",5,4,"pred","pet store.png",6,3,NA,"bat.png",3,NA
"13/04/2021 23:49:58","13/04/2021 18:49:58",48742,5,3601810,"5a1f24609b760100013a8c1b","Chrome 89.0.4389.114","retrieval_b5",2,"SS6",20,752.919999999904,4,1,1,0,"spatial_trial","SS6",5,4,"pred","pet store.png",2,4,NA,"crab.png",4,NA
"13/04/2021 23:50:00","13/04/2021 18:50:00",48742,5,3601810,"5a1f24609b760100013a8c1b","Chrome 89.0.4389.114","retrieval_b5",2,"SS6",28,947.264999999788,1,1,1,0,"spatial_trial","SS6",5,2,"rand","grocery store.png",4,1,NA,"honeycomb.png",1,NA
"13/04/2021 23:50:02","13/04/2021 18:50:02",48742,5,3601810,"5a1f24609b760100013a8c1b","Chrome 89.0.4389.114","retrieval_b5",2,"SS6",29,840.114999999969,4,1,1,0,"spatial_trial","SS6",5,2,"rand","grocery store.png",5,4,NA,"popcorn.png",4,NA
"13/04/2021 23:50:03","13/04/2021 18:50:03",48742,5,3601810,"5a1f24609b760100013a8c1b","Chrome 89.0.4389.114","retrieval_b5",2,"SS6",27,829.12000000033,2,1,1,0,"spatial_trial","SS6",5,2,"rand","grocery store.png",3,2,NA,"chocolatemilk.png",2,NA
"13/04/2021 23:50:05","13/04/2021 18:50:05",48742,5,3601810,"5a1f24609b760100013a8c1b","Chrome 89.0.4389.114","retrieval_b5",2,"SS6",25,1006.07000000036,3,1,1,0,"spatial_trial","SS6",5,2,"rand","grocery store.png",1,3,NA,"chocolate.png",3,NA
"13/04/2021 23:50:07","13/04/2021 18:50:07",48742,5,3601810,"5a1f24609b760100013a8c1b","Chrome 89.0.4389.114","retrieval_b5",2,"SS6",23,854.349999999613,2,1,1,0,"spatial_trial","SS6",5,4,"pred","pet store.png",5,2,NA,"lemur.png",2,NA
"13/04/2021 23:50:09","13/04/2021 18:50:09",48742,5,3601810,"5a1f24609b760100013a8c1b","Chrome 89.0.4389.114","retrieval_b5",2,"SS6",19,822.594999999637,1,1,1,0,"spatial_trial","SS6",5,4,"pred","pet store.png",1,1,NA,"snake.png",1,NA
"13/04/2021 23:50:11","13/04/2021 18:50:11",48742,5,3601810,"5a1f24609b760100013a8c1b","Chrome 89.0.4389.114","retrieval_b5",2,"SS6",21,739.039999999477,3,1,1,0,"spatial_trial","SS6",5,4,"pred","pet store.png",3,3,NA,"caterpillar.png",3,NA
"13/04/2021 23:53:17","13/04/2021 18:53:17",48742,5,3601810,"5a1f24609b760100013a8c1b","Chrome 89.0.4389.114","retrieval_b6",2,"SS6",19,1890.18000000033,1,1,1,0,"spatial_trial","SS6",6,1,"pred","pet store.png",1,1,NA,"platypus.png",1,NA
"13/04/2021 23:53:20","13/04/2021 18:53:20",48742,5,3601810,"5a1f24609b760100013a8c1b","Chrome 89.0.4389.114","retrieval_b6",2,"SS6",23,1864.94000000039,3,1,0,0,"spatial_trial","SS6",6,1,"pred","pet store.png",5,2,NA,"walrus.png",2,NA
"13/04/2021 23:53:22","13/04/2021 18:53:22",48742,5,3601810,"5a1f24609b760100013a8c1b","Chrome 89.0.4389.114","retrieval_b6",2,"SS6",24,1245.55500000042,3,1,1,0,"spatial_trial","SS6",6,1,"pred","pet store.png",6,3,NA,"manatee.png",3,NA
"13/04/2021 23:53:25","13/04/2021 18:53:25",48742,5,3601810,"5a1f24609b760100013a8c1b","Chrome 89.0.4389.114","retrieval_b6",2,"SS6",22,1483.19999999967,4,1,1,0,"spatial_trial","SS6",6,1,"pred","pet store.png",4,4,NA,"donkey.png",4,NA
"13/04/2021 23:53:27","13/04/2021 18:53:27",48742,5,3601810,"5a1f24609b760100013a8c1b","Chrome 89.0.4389.114","retrieval_b6",2,"SS6",30,795.404999999846,1,1,1,0,"spatial_trial","SS6",6,2,"rand","grocery store.png",6,1,NA,"asparagus.png",1,NA
"13/04/2021 23:53:29","13/04/2021 18:53:29",48742,5,3601810,"5a1f24609b760100013a8c1b","Chrome 89.0.4389.114","retrieval_b6",2,"SS6",28,786.579999999958,3,1,1,0,"spatial_trial","SS6",6,2,"rand","grocery store.png",4,3,NA,"bellpeppers.png",3,NA
"13/04/2021 23:53:30","13/04/2021 18:53:30",48742,5,3601810,"5a1f24609b760100013a8c1b","Chrome 89.0.4389.114","retrieval_b6",2,"SS6",25,822.030000000268,2,1,1,0,"spatial_trial","SS6",6,2,"rand","grocery store.png",1,2,NA,"cookedchicken.png",2,NA
"13/04/2021 23:53:32","13/04/2021 18:53:32",48742,5,3601810,"5a1f24609b760100013a8c1b","Chrome 89.0.4389.114","retrieval_b6",2,"SS6",21,876.804999999877,3,1,1,0,"spatial_trial","SS6",6,1,"pred","pet store.png",3,3,NA,"pelican.png",3,NA
"13/04/2021 23:53:34","13/04/2021 18:53:34",48742,5,3601810,"5a1f24609b760100013a8c1b","Chrome 89.0.4389.114","retrieval_b6",2,"SS6",29,757.139999999708,4,1,1,0,"spatial_trial","SS6",6,2,"rand","grocery store.png",5,4,NA,"cupcake.png",4,NA
"13/04/2021 23:53:36","13/04/2021 18:53:36",48742,5,3601810,"5a1f24609b760100013a8c1b","Chrome 89.0.4389.114","retrieval_b6",2,"SS6",20,763.510000000679,4,1,1,0,"spatial_trial","SS6",6,1,"pred","pet store.png",2,4,NA,"bettafish.png",4,NA
"13/04/2021 23:53:38","13/04/2021 18:53:38",48742,5,3601810,"5a1f24609b760100013a8c1b","Chrome 89.0.4389.114","retrieval_b6",2,"SS6",26,811.244999999872,1,1,1,0,"spatial_trial","SS6",6,2,"rand","grocery store.png",2,1,NA,"popcornshrimp.png",1,NA
"13/04/2021 23:53:40","13/04/2021 18:53:39",48742,5,3601810,"5a1f24609b760100013a8c1b","Chrome 89.0.4389.114","retrieval_b6",2,"SS6",27,860.66000000028,4,1,1,0,"spatial_trial","SS6",6,2,"rand","grocery store.png",3,4,NA,"coffee.png",4,NA
"13/04/2021 23:56:59","13/04/2021 18:56:58",48742,5,3601810,"5a1f24609b760100013a8c1b","Chrome 89.0.4389.114","retrieval_b7",2,"SS6",30,1382.6999999992,4,1,1,0,"spatial_trial","SS6",7,4,"rand","grocery store.png",6,4,NA,"dumplings.png",4,NA
"13/04/2021 23:57:01","13/04/2021 18:57:00",48742,5,3601810,"5a1f24609b760100013a8c1b","Chrome 89.0.4389.114","retrieval_b7",2,"SS6",25,939.150000000154,2,1,1,0,"spatial_trial","SS6",7,4,"rand","grocery store.png",1,2,NA,"cookies.png",2,NA
"13/04/2021 23:57:02","13/04/2021 18:57:02",48742,5,3601810,"5a1f24609b760100013a8c1b","Chrome 89.0.4389.114","retrieval_b7",2,"SS6",26,756.619999999202,4,1,1,0,"spatial_trial","SS6",7,4,"rand","grocery store.png",2,4,NA,"butter.png",4,NA
"13/04/2021 23:57:04","13/04/2021 18:57:04",48742,5,3601810,"5a1f24609b760100013a8c1b","Chrome 89.0.4389.114","retrieval_b7",2,"SS6",22,796.734999999899,4,1,1,0,"spatial_trial","SS6",7,3,"pred","pet store.png",4,4,NA,"gorilla.png",4,NA
"13/04/2021 23:57:06","13/04/2021 18:57:06",48742,5,3601810,"5a1f24609b760100013a8c1b","Chrome 89.0.4389.114","retrieval_b7",2,"SS6",29,776.315000000068,3,1,1,0,"spatial_trial","SS6",7,4,"rand","grocery store.png",5,3,NA,"soup.png",3,NA
"13/04/2021 23:57:08","13/04/2021 18:57:08",48742,5,3601810,"5a1f24609b760100013a8c1b","Chrome 89.0.4389.114","retrieval_b7",2,"SS6",23,1138.90999999967,2,1,1,0,"spatial_trial","SS6",7,3,"pred","pet store.png",5,2,NA,"seahorse.png",2,NA
"13/04/2021 23:57:10","13/04/2021 18:57:10",48742,5,3601810,"5a1f24609b760100013a8c1b","Chrome 89.0.4389.114","retrieval_b7",2,"SS6",28,800.214999999298,1,1,1,0,"spatial_trial","SS6",7,4,"rand","grocery store.png",4,1,NA,"edamame.png",1,NA
"13/04/2021 23:57:12","13/04/2021 18:57:12",48742,5,3601810,"5a1f24609b760100013a8c1b","Chrome 89.0.4389.114","retrieval_b7",2,"SS6",24,966.504999999415,3,1,1,0,"spatial_trial","SS6",7,3,"pred","pet store.png",6,3,NA,"flamingo.png",3,NA
"13/04/2021 23:57:14","13/04/2021 18:57:14",48742,5,3601810,"5a1f24609b760100013a8c1b","Chrome 89.0.4389.114","retrieval_b7",2,"SS6",21,1003.34999999995,3,1,1,0,"spatial_trial","SS6",7,3,"pred","pet store.png",3,3,NA,"redpanda.png",3,NA
"13/04/2021 23:57:16","13/04/2021 18:57:16",48742,5,3601810,"5a1f24609b760100013a8c1b","Chrome 89.0.4389.114","retrieval_b7",2,"SS6",20,662.754999999379,4,1,1,0,"spatial_trial","SS6",7,3,"pred","pet store.png",2,4,NA,"panda.png",4,NA
"13/04/2021 23:57:17","13/04/2021 18:57:17",48742,5,3601810,"5a1f24609b760100013a8c1b","Chrome 89.0.4389.114","retrieval_b7",2,"SS6",27,782.909999999902,3,1,1,0,"spatial_trial","SS6",7,4,"rand","grocery store.png",3,3,NA,"broccoli.png",3,NA
"13/04/2021 23:57:19","13/04/2021 18:57:19",48742,5,3601810,"5a1f24609b760100013a8c1b","Chrome 89.0.4389.114","retrieval_b7",2,"SS6",19,772.914999999557,1,1,1,0,"spatial_trial","SS6",7,3,"pred","pet store.png",1,1,NA,"crow.png",1,NA
"14/04/2021 00:00:58","13/04/2021 19:00:58",48742,5,3601810,"5a1f24609b760100013a8c1b","Chrome 89.0.4389.114","retrieval_b8",2,"SS6",24,1984.94000000028,2,1,0,0,"spatial_trial","SS6",8,4,"pred","pet store.png",6,3,NA,"eagle.png",3,NA
"14/04/2021 00:01:00","13/04/2021 19:01:00",48742,5,3601810,"5a1f24609b760100013a8c1b","Chrome 89.0.4389.114","retrieval_b8",2,"SS6",23,902.530000000297,2,1,1,0,"spatial_trial","SS6",8,4,"pred","pet store.png",5,2,NA,"hermitcrab.png",2,NA
"14/04/2021 00:01:02","13/04/2021 19:01:01",48742,5,3601810,"5a1f24609b760100013a8c1b","Chrome 89.0.4389.114","retrieval_b8",2,"SS6",25,809.204999999565,3,1,1,0,"spatial_trial","SS6",8,3,"rand","grocery store.png",1,3,NA,"acornsquash.png",3,NA
"14/04/2021 00:01:04","13/04/2021 19:01:04",48742,5,3601810,"5a1f24609b760100013a8c1b","Chrome 89.0.4389.114","retrieval_b8",2,"SS6",29,1122.3200000004,1,1,1,0,"spatial_trial","SS6",8,3,"rand","grocery store.png",5,1,NA,"bread.png",1,NA
"14/04/2021 00:01:06","13/04/2021 19:01:05",48742,5,3601810,"5a1f24609b760100013a8c1b","Chrome 89.0.4389.114","retrieval_b8",2,"SS6",19,811.639999999898,1,1,1,0,"spatial_trial","SS6",8,4,"pred","pet store.png",1,1,NA,"polarbear.png",1,NA
"14/04/2021 00:01:07","13/04/2021 19:01:07",48742,5,3601810,"5a1f24609b760100013a8c1b","Chrome 89.0.4389.114","retrieval_b8",2,"SS6",27,743.639999999687,4,1,0,0,"spatial_trial","SS6",8,3,"rand","grocery store.png",3,2,NA,"cantaloupe.png",2,NA
"14/04/2021 00:01:10","13/04/2021 19:01:09",48742,5,3601810,"5a1f24609b760100013a8c1b","Chrome 89.0.4389.114","retrieval_b8",2,"SS6",28,1224.17500000029,4,1,1,0,"spatial_trial","SS6",8,3,"rand","grocery store.png",4,4,NA,"pork.png",4,NA
"14/04/2021 00:01:12","13/04/2021 19:01:11",48742,5,3601810,"5a1f24609b760100013a8c1b","Chrome 89.0.4389.114","retrieval_b8",2,"SS6",22,1004.73000000056,1,1,0,0,"spatial_trial","SS6",8,4,"pred","pet store.png",4,4,NA,"sheep.png",4,NA
"14/04/2021 00:01:13","13/04/2021 19:01:13",48742,5,3601810,"5a1f24609b760100013a8c1b","Chrome 89.0.4389.114","retrieval_b8",2,"SS6",26,795.530000000326,4,1,1,0,"spatial_trial","SS6",8,3,"rand","grocery store.png",2,4,NA,"bacon.png",4,NA
"14/04/2021 00:01:15","13/04/2021 19:01:15",48742,5,3601810,"5a1f24609b760100013a8c1b","Chrome 89.0.4389.114","retrieval_b8",2,"SS6",30,827.220000000125,2,1,1,0,"spatial_trial","SS6",8,3,"rand","grocery store.png",6,2,NA,"pie.png",2,NA
"14/04/2021 00:01:17","13/04/2021 19:01:17",48742,5,3601810,"5a1f24609b760100013a8c1b","Chrome 89.0.4389.114","retrieval_b8",2,"SS6",21,792.914999999994,3,1,1,0,"spatial_trial","SS6",8,4,"pred","pet store.png",3,3,NA,"bloodhound.png",3,NA
"14/04/2021 00:01:19","13/04/2021 19:01:19",48742,5,3601810,"5a1f24609b760100013a8c1b","Chrome 89.0.4389.114","retrieval_b8",2,"SS6",20,752.594999999928,4,1,1,0,"spatial_trial","SS6",8,4,"pred","pet store.png",2,4,NA,"dolphin.png",4,NA
"13/04/2021 22:32:47","13/04/2021 18:32:46",48742,5,3601662,"6035cf48ab65f735a5ebb489","Chrome 89.0.4389.114","retrieval_b1",2,"SS4",29,1804.85499999486,3,1,1,0,"spatial_trial","SS4",1,3,"rand","grocery store.png",5,3,NA,"cabbage.png",3,NA
"13/04/2021 22:32:49","13/04/2021 18:32:48",48742,5,3601662,"6035cf48ab65f735a5ebb489","Chrome 89.0.4389.114","retrieval_b1",2,"SS4",26,864.550000056624,1,1,1,0,"spatial_trial","SS4",1,3,"rand","grocery store.png",2,1,NA,"smores.png",1,NA
"13/04/2021 22:32:52","13/04/2021 18:32:52",48742,5,3601662,"6035cf48ab65f735a5ebb489","Chrome 89.0.4389.114","retrieval_b1",2,"SS4",27,2207.97999994829,3,1,1,0,"spatial_trial","SS4",1,3,"rand","grocery store.png",3,3,NA,"cookies.png",3,NA
"13/04/2021 22:32:54","13/04/2021 18:32:53",48742,5,3601662,"6035cf48ab65f735a5ebb489","Chrome 89.0.4389.114","retrieval_b1",2,"SS4",23,868.219999945723,1,1,1,0,"spatial_trial","SS4",1,4,"pred","pet store.png",5,1,NA,"owl.png",1,NA
"13/04/2021 22:32:56","13/04/2021 18:32:56",48742,5,3601662,"6035cf48ab65f735a5ebb489","Chrome 89.0.4389.114","retrieval_b1",2,"SS4",22,1179.01500000153,2,1,1,0,"spatial_trial","SS4",1,4,"pred","pet store.png",4,2,NA,"panther.png",2,NA
"13/04/2021 22:32:58","13/04/2021 18:32:58",48742,5,3601662,"6035cf48ab65f735a5ebb489","Chrome 89.0.4389.114","retrieval_b1",2,"SS4",21,867.139999987558,4,1,1,0,"spatial_trial","SS4",1,4,"pred","pet store.png",3,4,NA,"pufferfish.png",4,NA
"13/04/2021 22:33:00","13/04/2021 18:33:00",48742,5,3601662,"6035cf48ab65f735a5ebb489","Chrome 89.0.4389.114","retrieval_b1",2,"SS4",25,1211.53999993112,2,1,1,0,"spatial_trial","SS4",1,3,"rand","grocery store.png",1,2,NA,"peanutbutter.png",2,NA
"13/04/2021 22:33:03","13/04/2021 18:33:02",48742,5,3601662,"6035cf48ab65f735a5ebb489","Chrome 89.0.4389.114","retrieval_b1",2,"SS4",19,1572.80999992508,3,1,1,0,"spatial_trial","SS4",1,4,"pred","pet store.png",1,3,NA,"iguana.png",3,NA
"13/04/2021 22:33:10","13/04/2021 18:33:10",48742,5,3601662,"6035cf48ab65f735a5ebb489","Chrome 89.0.4389.114","retrieval_b1",2,"SS4",24,6596.81999997701,1,1,0,0,"spatial_trial","SS4",1,4,"pred","pet store.png",6,4,NA,"pig.png",4,NA
"13/04/2021 22:33:12","13/04/2021 18:33:12",48742,5,3601662,"6035cf48ab65f735a5ebb489","Chrome 89.0.4389.114","retrieval_b1",2,"SS4",30,795.225000008941,1,1,1,0,"spatial_trial","SS4",1,3,"rand","grocery store.png",6,1,NA,"onion.png",1,NA
"13/04/2021 22:33:15","13/04/2021 18:33:15",48742,5,3601662,"6035cf48ab65f735a5ebb489","Chrome 89.0.4389.114","retrieval_b1",2,"SS4",20,1964.3699999433,2,1,1,0,"spatial_trial","SS4",1,4,"pred","pet store.png",2,2,NA,"kangaroo.png",2,NA
"13/04/2021 22:33:17","13/04/2021 18:33:17",48742,5,3601662,"6035cf48ab65f735a5ebb489","Chrome 89.0.4389.114","retrieval_b1",2,"SS4",28,830.049999989569,4,1,1,0,"spatial_trial","SS4",1,3,"rand","grocery store.png",4,4,NA,"poutine.png",4,NA
"13/04/2021 22:36:51","13/04/2021 18:36:51",48742,5,3601662,"6035cf48ab65f735a5ebb489","Chrome 89.0.4389.114","retrieval_b2",2,"SS4",22,1416.73499997705,2,1,1,0,"spatial_trial","SS4",2,2,"pred","pet store.png",4,2,NA,"hammerheadshark.png",2,NA
"13/04/2021 22:36:53","13/04/2021 18:36:53",48742,5,3601662,"6035cf48ab65f735a5ebb489","Chrome 89.0.4389.114","retrieval_b2",2,"SS4",23,869.504999951459,1,1,1,0,"spatial_trial","SS4",2,2,"pred","pet store.png",5,1,NA,"squid.png",1,NA
"13/04/2021 22:36:55","13/04/2021 18:36:55",48742,5,3601662,"6035cf48ab65f735a5ebb489","Chrome 89.0.4389.114","retrieval_b2",2,"SS4",25,847.175000002608,2,1,1,0,"spatial_trial","SS4",2,1,"rand","grocery store.png",1,2,NA,"acaibowl.png",2,NA
"13/04/2021 22:36:57","13/04/2021 18:36:57",48742,5,3601662,"6035cf48ab65f735a5ebb489","Chrome 89.0.4389.114","retrieval_b2",2,"SS4",29,864.065000088885,4,1,1,0,"spatial_trial","SS4",2,1,"rand","grocery store.png",5,4,NA,"dumplings.png",4,NA
"13/04/2021 22:36:59","13/04/2021 18:36:59",48742,5,3601662,"6035cf48ab65f735a5ebb489","Chrome 89.0.4389.114","retrieval_b2",2,"SS4",19,916.190000018105,3,1,1,0,"spatial_trial","SS4",2,2,"pred","pet store.png",1,3,NA,"bison.png",3,NA
"13/04/2021 22:37:02","13/04/2021 18:37:02",48742,5,3601662,"6035cf48ab65f735a5ebb489","Chrome 89.0.4389.114","retrieval_b2",2,"SS4",27,2197.97500001732,3,1,1,0,"spatial_trial","SS4",2,1,"rand","grocery store.png",3,3,NA,"hotdog.png",3,NA
"13/04/2021 22:37:04","13/04/2021 18:37:04",48742,5,3601662,"6035cf48ab65f735a5ebb489","Chrome 89.0.4389.114","retrieval_b2",2,"SS4",26,790.890000062063,1,1,1,0,"spatial_trial","SS4",2,1,"rand","grocery store.png",2,1,NA,"strawberries.png",1,NA
"13/04/2021 22:37:07","13/04/2021 18:37:06",48742,5,3601662,"6035cf48ab65f735a5ebb489","Chrome 89.0.4389.114","retrieval_b2",2,"SS4",28,1767.06500002183,1,1,1,0,"spatial_trial","SS4",2,1,"rand","grocery store.png",4,1,NA,"bellpeppers.png",1,NA
"13/04/2021 22:37:09","13/04/2021 18:37:08",48742,5,3601662,"6035cf48ab65f735a5ebb489","Chrome 89.0.4389.114","retrieval_b2",2,"SS4",24,913.724999991246,4,1,1,0,"spatial_trial","SS4",2,2,"pred","pet store.png",6,4,NA,"canadiangoose.png",4,NA
"13/04/2021 22:37:10","13/04/2021 18:37:10",48742,5,3601662,"6035cf48ab65f735a5ebb489","Chrome 89.0.4389.114","retrieval_b2",2,"SS4",30,768.51500000339,3,1,1,0,"spatial_trial","SS4",2,1,"rand","grocery store.png",6,3,NA,"artichoke.png",3,NA
"13/04/2021 22:37:14","13/04/2021 18:37:14",48742,5,3601662,"6035cf48ab65f735a5ebb489","Chrome 89.0.4389.114","retrieval_b2",2,"SS4",21,2867.17500002123,4,1,1,0,"spatial_trial","SS4",2,2,"pred","pet store.png",3,4,NA,"tortoise.png",4,NA
"13/04/2021 22:37:16","13/04/2021 18:37:16",48742,5,3601662,"6035cf48ab65f735a5ebb489","Chrome 89.0.4389.114","retrieval_b2",2,"SS4",20,783.199999947101,2,1,1,0,"spatial_trial","SS4",2,2,"pred","pet store.png",2,2,NA,"pug.png",2,NA
"13/04/2021 22:40:49","13/04/2021 18:40:48",48742,5,3601662,"6035cf48ab65f735a5ebb489","Chrome 89.0.4389.114","retrieval_b3",2,"SS4",19,916.424999944866,3,1,1,0,"spatial_trial","SS4",3,1,"pred","pet store.png",1,3,NA,"goldenretriever.png",3,NA
"13/04/2021 22:40:51","13/04/2021 18:40:50",48742,5,3601662,"6035cf48ab65f735a5ebb489","Chrome 89.0.4389.114","retrieval_b3",2,"SS4",27,929.215000011027,3,1,1,0,"spatial_trial","SS4",3,3,"rand","grocery store.png",3,3,NA,"cookedchicken.png",3,NA
"13/04/2021 22:40:52","13/04/2021 18:40:52",48742,5,3601662,"6035cf48ab65f735a5ebb489","Chrome 89.0.4389.114","retrieval_b3",2,"SS4",22,853.149999980815,2,1,1,0,"spatial_trial","SS4",3,1,"pred","pet store.png",4,2,NA,"manatee.png",2,NA
"13/04/2021 22:40:54","13/04/2021 18:40:54",48742,5,3601662,"6035cf48ab65f735a5ebb489","Chrome 89.0.4389.114","retrieval_b3",2,"SS4",20,869.014999945648,2,1,1,0,"spatial_trial","SS4",3,1,"pred","pet store.png",2,2,NA,"toad.png",2,NA
"13/04/2021 22:40:56","13/04/2021 18:40:56",48742,5,3601662,"6035cf48ab65f735a5ebb489","Chrome 89.0.4389.114","retrieval_b3",2,"SS4",28,709.27499991376,1,1,1,0,"spatial_trial","SS4",3,3,"rand","grocery store.png",4,1,NA,"garlic.png",1,NA
"13/04/2021 22:40:58","13/04/2021 18:40:58",48742,5,3601662,"6035cf48ab65f735a5ebb489","Chrome 89.0.4389.114","retrieval_b3",2,"SS4",26,792.605000082403,1,1,0,0,"spatial_trial","SS4",3,3,"rand","grocery store.png",2,2,NA,"cherries.png",2,NA
"13/04/2021 22:41:01","13/04/2021 18:41:00",48742,5,3601662,"6035cf48ab65f735a5ebb489","Chrome 89.0.4389.114","retrieval_b3",2,"SS4",24,1714.6950000897,4,1,1,0,"spatial_trial","SS4",3,1,"pred","pet store.png",6,4,NA,"rat.png",4,NA
"13/04/2021 22:41:06","13/04/2021 18:41:05",48742,5,3601662,"6035cf48ab65f735a5ebb489","Chrome 89.0.4389.114","retrieval_b3",2,"SS4",29,4008.98499996401,1,1,0,0,"spatial_trial","SS4",3,3,"rand","grocery store.png",5,2,NA,"pineapple.png",2,NA
"13/04/2021 22:41:08","13/04/2021 18:41:08",48742,5,3601662,"6035cf48ab65f735a5ebb489","Chrome 89.0.4389.114","retrieval_b3",2,"SS4",23,1361.6949999705,1,1,1,0,"spatial_trial","SS4",3,1,"pred","pet store.png",5,1,NA,"seahorse.png",1,NA
"13/04/2021 22:41:10","13/04/2021 18:41:10",48742,5,3601662,"6035cf48ab65f735a5ebb489","Chrome 89.0.4389.114","retrieval_b3",2,"SS4",30,731.55999998562,1,1,1,0,"spatial_trial","SS4",3,3,"rand","grocery store.png",6,1,NA,"bakedpotato.png",1,NA
"13/04/2021 22:41:12","13/04/2021 18:41:11",48742,5,3601662,"6035cf48ab65f735a5ebb489","Chrome 89.0.4389.114","retrieval_b3",2,"SS4",25,745.074999984354,4,1,1,0,"spatial_trial","SS4",3,3,"rand","grocery store.png",1,4,NA,"corn.png",4,NA
"13/04/2021 22:41:13","13/04/2021 18:41:13",48742,5,3601662,"6035cf48ab65f735a5ebb489","Chrome 89.0.4389.114","retrieval_b3",2,"SS4",21,715.629999991506,4,1,1,0,"spatial_trial","SS4",3,1,"pred","pet store.png",3,4,NA,"goose.png",4,NA
"13/04/2021 22:45:08","13/04/2021 18:45:07",48742,5,3601662,"6035cf48ab65f735a5ebb489","Chrome 89.0.4389.114","retrieval_b4",2,"SS4",28,1315.2799999807,3,1,1,0,"spatial_trial","SS4",4,4,"rand","grocery store.png",4,3,NA,"cereal.png",3,NA
"13/04/2021 22:45:11","13/04/2021 18:45:10",48742,5,3601662,"6035cf48ab65f735a5ebb489","Chrome 89.0.4389.114","retrieval_b4",2,"SS4",20,2007.30499997735,2,1,1,0,"spatial_trial","SS4",4,2,"pred","pet store.png",2,2,NA,"sheep.png",2,NA
"13/04/2021 22:45:12","13/04/2021 18:45:12",48742,5,3601662,"6035cf48ab65f735a5ebb489","Chrome 89.0.4389.114","retrieval_b4",2,"SS4",29,804.600000032224,4,1,1,0,"spatial_trial","SS4",4,4,"rand","grocery store.png",5,4,NA,"orange.png",4,NA
"13/04/2021 22:45:14","13/04/2021 18:45:14",48742,5,3601662,"6035cf48ab65f735a5ebb489","Chrome 89.0.4389.114","retrieval_b4",2,"SS4",24,759.994999971241,4,1,1,0,"spatial_trial","SS4",4,2,"pred","pet store.png",6,4,NA,"turtle.png",4,NA
"13/04/2021 22:45:16","13/04/2021 18:45:16",48742,5,3601662,"6035cf48ab65f735a5ebb489","Chrome 89.0.4389.114","retrieval_b4",2,"SS4",27,659.480000031181,1,1,1,0,"spatial_trial","SS4",4,4,"rand","grocery store.png",3,1,NA,"bacon.png",1,NA
"13/04/2021 22:45:19","13/04/2021 18:45:18",48742,5,3601662,"6035cf48ab65f735a5ebb489","Chrome 89.0.4389.114","retrieval_b4",2,"SS4",22,1597.62999997474,2,1,1,0,"spatial_trial","SS4",4,2,"pred","pet store.png",4,2,NA,"butterfly.png",2,NA
"13/04/2021 22:45:20","13/04/2021 18:45:20",48742,5,3601662,"6035cf48ab65f735a5ebb489","Chrome 89.0.4389.114","retrieval_b4",2,"SS4",26,693.959999945946,3,1,1,0,"spatial_trial","SS4",4,4,"rand","grocery store.png",2,3,NA,"sandwich.png",3,NA
"13/04/2021 22:45:22","13/04/2021 18:45:22",48742,5,3601662,"6035cf48ab65f735a5ebb489","Chrome 89.0.4389.114","retrieval_b4",2,"SS4",19,765.240000095218,3,1,1,0,"spatial_trial","SS4",4,2,"pred","pet store.png",1,3,NA,"hummingbird.png",3,NA
"13/04/2021 22:45:25","13/04/2021 18:45:25",48742,5,3601662,"6035cf48ab65f735a5ebb489","Chrome 89.0.4389.114","retrieval_b4",2,"SS4",25,2232.80500003602,3,1,0,0,"spatial_trial","SS4",4,4,"rand","grocery store.png",1,2,NA,"starfruit.png",2,NA
"13/04/2021 22:45:29","13/04/2021 18:45:29",48742,5,3601662,"6035cf48ab65f735a5ebb489","Chrome 89.0.4389.114","retrieval_b4",2,"SS4",23,2711.06000000145,1,1,1,0,"spatial_trial","SS4",4,2,"pred","pet store.png",5,1,NA,"elephant.png",1,NA
"13/04/2021 22:45:31","13/04/2021 18:45:31",48742,5,3601662,"6035cf48ab65f735a5ebb489","Chrome 89.0.4389.114","retrieval_b4",2,"SS4",21,1083.6099999724,4,1,1,0,"spatial_trial","SS4",4,2,"pred","pet store.png",3,4,NA,"cardinal.png",4,NA
"13/04/2021 22:45:33","13/04/2021 18:45:33",48742,5,3601662,"6035cf48ab65f735a5ebb489","Chrome 89.0.4389.114","retrieval_b4",2,"SS4",30,884.000000078231,1,1,1,0,"spatial_trial","SS4",4,4,"rand","grocery store.png",6,1,NA,"dragonfruit.png",1,NA
"13/04/2021 22:50:30","13/04/2021 18:50:29",48742,5,3601662,"6035cf48ab65f735a5ebb489","Chrome 89.0.4389.114","retrieval_b5",2,"SS4",19,1243.18500002846,3,1,1,0,"spatial_trial","SS4",5,1,"pred","pet store.png",1,3,NA,"bloodhound.png",3,NA
"13/04/2021 22:50:33","13/04/2021 18:50:33",48742,5,3601662,"6035cf48ab65f735a5ebb489","Chrome 89.0.4389.114","retrieval_b5",2,"SS4",22,2146.7699999921,2,1,1,0,"spatial_trial","SS4",5,1,"pred","pet store.png",4,2,NA,"crow.png",2,NA
"13/04/2021 22:50:37","13/04/2021 18:50:37",48742,5,3601662,"6035cf48ab65f735a5ebb489","Chrome 89.0.4389.114","retrieval_b5",2,"SS4",20,3336.03500004392,2,1,1,0,"spatial_trial","SS4",5,1,"pred","pet store.png",2,2,NA,"penguin.png",2,NA
"13/04/2021 22:50:40","13/04/2021 18:50:40",48742,5,3601662,"6035cf48ab65f735a5ebb489","Chrome 89.0.4389.114","retrieval_b5",2,"SS4",25,1669.26999995485,4,1,0,0,"spatial_trial","SS4",5,2,"rand","grocery store.png",1,2,NA,"milk.png",2,NA
"13/04/2021 22:50:42","13/04/2021 18:50:41",48742,5,3601662,"6035cf48ab65f735a5ebb489","Chrome 89.0.4389.114","retrieval_b5",2,"SS4",24,748.780000023544,4,1,1,0,"spatial_trial","SS4",5,1,"pred","pet store.png",6,4,NA,"hermitcrab.png",4,NA
"13/04/2021 22:50:45","13/04/2021 18:50:44",48742,5,3601662,"6035cf48ab65f735a5ebb489","Chrome 89.0.4389.114","retrieval_b5",2,"SS4",21,1848.00500003621,4,1,1,0,"spatial_trial","SS4",5,1,"pred","pet store.png",3,4,NA,"gorilla.png",4,NA
"13/04/2021 22:50:47","13/04/2021 18:50:46",48742,5,3601662,"6035cf48ab65f735a5ebb489","Chrome 89.0.4389.114","retrieval_b5",2,"SS4",28,1043.16000000108,4,1,1,0,"spatial_trial","SS4",5,2,"rand","grocery store.png",4,4,NA,"walnuts.png",4,NA
"13/04/2021 22:50:49","13/04/2021 18:50:49",48742,5,3601662,"6035cf48ab65f735a5ebb489","Chrome 89.0.4389.114","retrieval_b5",2,"SS4",27,1540.60500010382,3,1,1,0,"spatial_trial","SS4",5,2,"rand","grocery store.png",3,3,NA,"donut.png",3,NA
"13/04/2021 22:50:51","13/04/2021 18:50:51",48742,5,3601662,"6035cf48ab65f735a5ebb489","Chrome 89.0.4389.114","retrieval_b5",2,"SS4",26,676.834999932908,4,1,1,0,"spatial_trial","SS4",5,2,"rand","grocery store.png",2,4,NA,"cupnoodle.png",4,NA
"13/04/2021 22:50:53","13/04/2021 18:50:52",48742,5,3601662,"6035cf48ab65f735a5ebb489","Chrome 89.0.4389.114","retrieval_b5",2,"SS4",29,661.974999937229,1,1,1,0,"spatial_trial","SS4",5,2,"rand","grocery store.png",5,1,NA,"soup.png",1,NA
"13/04/2021 22:50:54","13/04/2021 18:50:54",48742,5,3601662,"6035cf48ab65f735a5ebb489","Chrome 89.0.4389.114","retrieval_b5",2,"SS4",30,758.975000004284,3,1,1,0,"spatial_trial","SS4",5,2,"rand","grocery store.png",6,3,NA,"fortunecookie.png",3,NA
"13/04/2021 22:50:56","13/04/2021 18:50:56",48742,5,3601662,"6035cf48ab65f735a5ebb489","Chrome 89.0.4389.114","retrieval_b5",2,"SS4",23,707.11499999743,1,1,1,0,"spatial_trial","SS4",5,1,"pred","pet store.png",5,1,NA,"flamingo.png",1,NA
"13/04/2021 22:54:39","13/04/2021 18:54:39",48742,5,3601662,"6035cf48ab65f735a5ebb489","Chrome 89.0.4389.114","retrieval_b6",2,"SS4",27,2963.80999998655,3,1,0,0,"spatial_trial","SS4",6,2,"rand","grocery store.png",3,1,NA,"blackpepper.png",1,NA
"13/04/2021 22:54:42","13/04/2021 18:54:42",48742,5,3601662,"6035cf48ab65f735a5ebb489","Chrome 89.0.4389.114","retrieval_b6",2,"SS4",28,2347.20499999821,4,1,0,0,"spatial_trial","SS4",6,2,"rand","grocery store.png",4,3,NA,"egg.png",3,NA
"13/04/2021 22:54:45","13/04/2021 18:54:44",48742,5,3601662,"6035cf48ab65f735a5ebb489","Chrome 89.0.4389.114","retrieval_b6",2,"SS4",25,1017.86999998149,4,1,0,0,"spatial_trial","SS4",6,2,"rand","grocery store.png",1,2,NA,"pomegranate.png",2,NA
"13/04/2021 22:54:46","13/04/2021 18:54:46",48742,5,3601662,"6035cf48ab65f735a5ebb489","Chrome 89.0.4389.114","retrieval_b6",2,"SS4",21,854.755000094883,4,1,1,0,"spatial_trial","SS4",6,4,"pred","pet store.png",3,4,NA,"bear.png",4,NA
"13/04/2021 22:54:48","13/04/2021 18:54:48",48742,5,3601662,"6035cf48ab65f735a5ebb489","Chrome 89.0.4389.114","retrieval_b6",2,"SS4",30,909.14000000339,3,1,1,0,"spatial_trial","SS4",6,2,"rand","grocery store.png",6,3,NA,"clams.png",3,NA
"13/04/2021 22:54:50","13/04/2021 18:54:50",48742,5,3601662,"6035cf48ab65f735a5ebb489","Chrome 89.0.4389.114","retrieval_b6",2,"SS4",22,888.329999987036,2,1,1,0,"spatial_trial","SS4",6,4,"pred","pet store.png",4,2,NA,"cuttlefish.png",2,NA
"13/04/2021 22:54:52","13/04/2021 18:54:52",48742,5,3601662,"6035cf48ab65f735a5ebb489","Chrome 89.0.4389.114","retrieval_b6",2,"SS4",20,660.910000093281,2,1,1,0,"spatial_trial","SS4",6,4,"pred","pet store.png",2,2,NA,"emu.png",2,NA
"13/04/2021 22:54:54","13/04/2021 18:54:53",48742,5,3601662,"6035cf48ab65f735a5ebb489","Chrome 89.0.4389.114","retrieval_b6",2,"SS4",26,734.034999972209,4,1,1,0,"spatial_trial","SS4",6,2,"rand","grocery store.png",2,4,NA,"hummus.png",4,NA
"13/04/2021 22:54:56","13/04/2021 18:54:55",48742,5,3601662,"6035cf48ab65f735a5ebb489","Chrome 89.0.4389.114","retrieval_b6",2,"SS4",24,782.160000060685,4,1,1,0,"spatial_trial","SS4",6,4,"pred","pet store.png",6,4,NA,"armadillo.png",4,NA
"13/04/2021 22:54:57","13/04/2021 18:54:57",48742,5,3601662,"6035cf48ab65f735a5ebb489","Chrome 89.0.4389.114","retrieval_b6",2,"SS4",23,760.810000007041,1,1,1,0,"spatial_trial","SS4",6,4,"pred","pet store.png",5,1,NA,"redpanda.png",1,NA
"13/04/2021 22:54:59","13/04/2021 18:54:59",48742,5,3601662,"6035cf48ab65f735a5ebb489","Chrome 89.0.4389.114","retrieval_b6",2,"SS4",19,739.25500002224,3,1,1,0,"spatial_trial","SS4",6,4,"pred","pet store.png",1,3,NA,"fox.png",3,NA
"13/04/2021 22:55:01","13/04/2021 18:55:01",48742,5,3601662,"6035cf48ab65f735a5ebb489","Chrome 89.0.4389.114","retrieval_b6",2,"SS4",29,1124.27000002936,4,1,1,0,"spatial_trial","SS4",6,2,"rand","grocery store.png",5,4,NA,"cantaloupe.png",4,NA
"13/04/2021 22:58:44","13/04/2021 18:58:43",48742,5,3601662,"6035cf48ab65f735a5ebb489","Chrome 89.0.4389.114","retrieval_b7",2,"SS4",19,1209.15999996942,3,1,1,0,"spatial_trial","SS4",7,3,"pred","pet store.png",1,3,NA,"tiger.png",3,NA
"13/04/2021 22:58:48","13/04/2021 18:58:48",48742,5,3601662,"6035cf48ab65f735a5ebb489","Chrome 89.0.4389.114","retrieval_b7",2,"SS4",28,3226.63000004832,4,1,1,0,"spatial_trial","SS4",7,4,"rand","grocery store.png",4,4,NA,"icecreamsandwich.png",4,NA
"13/04/2021 22:58:50","13/04/2021 18:58:50",48742,5,3601662,"6035cf48ab65f735a5ebb489","Chrome 89.0.4389.114","retrieval_b7",2,"SS4",20,1083.33499997389,2,1,1,0,"spatial_trial","SS4",7,3,"pred","pet store.png",2,2,NA,"shark.png",2,NA
"13/04/2021 22:58:53","13/04/2021 18:58:53",48742,5,3601662,"6035cf48ab65f735a5ebb489","Chrome 89.0.4389.114","retrieval_b7",2,"SS4",24,1674.59999991115,4,1,1,0,"spatial_trial","SS4",7,3,"pred","pet store.png",6,4,NA,"platypus.png",4,NA
"13/04/2021 22:58:55","13/04/2021 18:58:55",48742,5,3601662,"6035cf48ab65f735a5ebb489","Chrome 89.0.4389.114","retrieval_b7",2,"SS4",21,1302.23000003025,4,1,1,0,"spatial_trial","SS4",7,3,"pred","pet store.png",3,4,NA,"rhino.png",4,NA
"13/04/2021 22:58:57","13/04/2021 18:58:57",48742,5,3601662,"6035cf48ab65f735a5ebb489","Chrome 89.0.4389.114","retrieval_b7",2,"SS4",30,856.370000052266,4,1,1,0,"spatial_trial","SS4",7,4,"rand","grocery store.png",6,4,NA,"muffin.png",4,NA
"13/04/2021 22:58:59","13/04/2021 18:58:59",48742,5,3601662,"6035cf48ab65f735a5ebb489","Chrome 89.0.4389.114","retrieval_b7",2,"SS4",27,1004.54999995418,1,1,1,0,"spatial_trial","SS4",7,4,"rand","grocery store.png",3,1,NA,"cake.png",1,NA
"13/04/2021 22:59:01","13/04/2021 18:59:01",48742,5,3601662,"6035cf48ab65f735a5ebb489","Chrome 89.0.4389.114","retrieval_b7",2,"SS4",25,1074.68499999959,1,1,0,0,"spatial_trial","SS4",7,4,"rand","grocery store.png",1,2,NA,"nachos.png",2,NA
"13/04/2021 22:59:03","13/04/2021 18:59:03",48742,5,3601662,"6035cf48ab65f735a5ebb489","Chrome 89.0.4389.114","retrieval_b7",2,"SS4",23,1004.26499999594,1,1,1,0,"spatial_trial","SS4",7,3,"pred","pet store.png",5,1,NA,"cat.png",1,NA
"13/04/2021 22:59:08","13/04/2021 18:59:08",48742,5,3601662,"6035cf48ab65f735a5ebb489","Chrome 89.0.4389.114","retrieval_b7",2,"SS4",22,3754.97500004712,3,1,0,0,"spatial_trial","SS4",7,3,"pred","pet store.png",4,2,NA,"koala.png",2,NA
"13/04/2021 22:59:10","13/04/2021 18:59:10",48742,5,3601662,"6035cf48ab65f735a5ebb489","Chrome 89.0.4389.114","retrieval_b7",2,"SS4",29,1079.44999996107,3,1,1,0,"spatial_trial","SS4",7,4,"rand","grocery store.png",5,3,NA,"oliveoil.png",3,NA
"13/04/2021 22:59:12","13/04/2021 18:59:12",48742,5,3601662,"6035cf48ab65f735a5ebb489","Chrome 89.0.4389.114","retrieval_b7",2,"SS4",26,907.059999997728,3,1,1,0,"spatial_trial","SS4",7,4,"rand","grocery store.png",2,3,NA,"granola.png",3,NA
"13/04/2021 23:02:19","13/04/2021 19:02:19",48742,5,3601662,"6035cf48ab65f735a5ebb489","Chrome 89.0.4389.114","retrieval_b8",2,"SS4",22,878.454999998212,2,1,1,0,"spatial_trial","SS4",8,3,"pred","pet store.png",4,2,NA,"eagle.png",2,NA
"13/04/2021 23:02:22","13/04/2021 19:02:22",48742,5,3601662,"6035cf48ab65f735a5ebb489","Chrome 89.0.4389.114","retrieval_b8",2,"SS4",19,1705.62000002246,3,1,1,0,"spatial_trial","SS4",8,3,"pred","pet store.png",1,3,NA,"vulture.png",3,NA
"13/04/2021 23:02:24","13/04/2021 19:02:24",48742,5,3601662,"6035cf48ab65f735a5ebb489","Chrome 89.0.4389.114","retrieval_b8",2,"SS4",21,1078.33499996923,3,1,0,0,"spatial_trial","SS4",8,3,"pred","pet store.png",3,4,NA,"zebra.png",4,NA
"13/04/2021 23:02:26","13/04/2021 19:02:26",48742,5,3601662,"6035cf48ab65f735a5ebb489","Chrome 89.0.4389.114","retrieval_b8",2,"SS4",25,828.364999964833,4,1,0,0,"spatial_trial","SS4",8,1,"rand","grocery store.png",1,2,NA,"pretzel.png",2,NA
"13/04/2021 23:02:28","13/04/2021 19:02:27",48742,5,3601662,"6035cf48ab65f735a5ebb489","Chrome 89.0.4389.114","retrieval_b8",2,"SS4",24,687.42500001099,4,1,1,0,"spatial_trial","SS4",8,3,"pred","pet store.png",6,4,NA,"polarbear.png",4,NA
"13/04/2021 23:02:29","13/04/2021 19:02:29",48742,5,3601662,"6035cf48ab65f735a5ebb489","Chrome 89.0.4389.114","retrieval_b8",2,"SS4",30,631.009999895468,4,1,1,0,"spatial_trial","SS4",8,1,"rand","grocery store.png",6,4,NA,"butter.png",4,NA
"13/04/2021 23:02:31","13/04/2021 19:02:31",48742,5,3601662,"6035cf48ab65f735a5ebb489","Chrome 89.0.4389.114","retrieval_b8",2,"SS4",29,680.440000025555,1,1,1,0,"spatial_trial","SS4",8,1,"rand","grocery store.png",5,1,NA,"celery.png",1,NA
"13/04/2021 23:02:33","13/04/2021 19:02:32",48742,5,3601662,"6035cf48ab65f735a5ebb489","Chrome 89.0.4389.114","retrieval_b8",2,"SS4",23,723.909999942407,1,1,1,0,"spatial_trial","SS4",8,3,"pred","pet store.png",5,1,NA,"parrot.png",1,NA
"13/04/2021 23:02:34","13/04/2021 19:02:34",48742,5,3601662,"6035cf48ab65f735a5ebb489","Chrome 89.0.4389.114","retrieval_b8",2,"SS4",27,756.86000008136,1,1,1,0,"spatial_trial","SS4",8,1,"rand","grocery store.png",3,1,NA,"cinnamon.png",1,NA
"13/04/2021 23:02:36","13/04/2021 19:02:36",48742,5,3601662,"6035cf48ab65f735a5ebb489","Chrome 89.0.4389.114","retrieval_b8",2,"SS4",20,698.565000086091,2,1,1,0,"spatial_trial","SS4",8,3,"pred","pet store.png",2,2,NA,"turkey.png",2,NA
"13/04/2021 23:02:38","13/04/2021 19:02:38",48742,5,3601662,"6035cf48ab65f735a5ebb489","Chrome 89.0.4389.114","retrieval_b8",2,"SS4",26,1054.44999993779,4,1,1,0,"spatial_trial","SS4",8,1,"rand","grocery store.png",2,4,NA,"lychee.png",4,NA
"13/04/2021 23:02:42","13/04/2021 19:02:41",48742,5,3601662,"6035cf48ab65f735a5ebb489","Chrome 89.0.4389.114","retrieval_b8",2,"SS4",28,2380.24000008591,3,1,1,0,"spatial_trial","SS4",8,1,"rand","grocery store.png",4,3,NA,"basil.png",3,NA
"13/04/2021 21:35:09","13/04/2021 16:35:08",48742,5,3601451,"5cbe04b4f429ff00159de30e","Chrome 89.0.4389.95","retrieval_b1",2,"SS5",28,6870.48499996308,3,1,0,0,"spatial_trial","SS5",1,4,"rand","pet store.png",4,2,NA,"pig.png",2,NA
"13/04/2021 21:35:12","13/04/2021 16:35:12",48742,5,3601451,"5cbe04b4f429ff00159de30e","Chrome 89.0.4389.95","retrieval_b1",2,"SS5",30,2955.6450000382,4,1,1,0,"spatial_trial","SS5",1,4,"rand","pet store.png",6,4,NA,"hippo.png",4,NA
"13/04/2021 21:35:15","13/04/2021 16:35:14",48742,5,3601451,"5cbe04b4f429ff00159de30e","Chrome 89.0.4389.95","retrieval_b1",2,"SS5",27,1701.26000000164,1,1,1,0,"spatial_trial","SS5",1,4,"rand","pet store.png",3,1,NA,"owl.png",1,NA
"13/04/2021 21:35:18","13/04/2021 16:35:17",48742,5,3601451,"5cbe04b4f429ff00159de30e","Chrome 89.0.4389.95","retrieval_b1",2,"SS5",23,1922.59500001092,2,1,1,0,"spatial_trial","SS5",1,2,"pred","grocery store.png",5,2,NA,"guava.png",2,NA
"13/04/2021 21:35:21","13/04/2021 16:35:20",48742,5,3601451,"5cbe04b4f429ff00159de30e","Chrome 89.0.4389.95","retrieval_b1",2,"SS5",24,1647.02999999281,4,1,0,0,"spatial_trial","SS5",1,2,"pred","grocery store.png",6,3,NA,"nachos.png",3,NA
"13/04/2021 21:35:24","13/04/2021 16:35:22",48742,5,3601451,"5cbe04b4f429ff00159de30e","Chrome 89.0.4389.95","retrieval_b1",2,"SS5",21,1320.92500000726,3,1,1,0,"spatial_trial","SS5",1,2,"pred","grocery store.png",3,3,NA,"coffee.png",3,NA
"13/04/2021 21:35:26","13/04/2021 16:35:25",48742,5,3601451,"5cbe04b4f429ff00159de30e","Chrome 89.0.4389.95","retrieval_b1",2,"SS5",26,1726.64499998791,2,1,0,0,"spatial_trial","SS5",1,4,"rand","pet store.png",2,4,NA,"ferret.png",4,NA
"13/04/2021 21:35:30","13/04/2021 16:35:28",48742,5,3601451,"5cbe04b4f429ff00159de30e","Chrome 89.0.4389.95","retrieval_b1",2,"SS5",22,1783.06499996688,4,1,1,0,"spatial_trial","SS5",1,2,"pred","grocery store.png",4,4,NA,"cabbage.png",4,NA
"13/04/2021 21:35:32","13/04/2021 16:35:31",48742,5,3601451,"5cbe04b4f429ff00159de30e","Chrome 89.0.4389.95","retrieval_b1",2,"SS5",29,2154.9450000166,1,1,1,0,"spatial_trial","SS5",1,4,"rand","pet store.png",5,1,NA,"pug.png",1,NA
"13/04/2021 21:35:35","13/04/2021 16:35:34",48742,5,3601451,"5cbe04b4f429ff00159de30e","Chrome 89.0.4389.95","retrieval_b1",2,"SS5",19,1343.97500002524,1,1,1,0,"spatial_trial","SS5",1,2,"pred","grocery store.png",1,1,NA,"watermelon.png",1,NA
"13/04/2021 21:35:37","13/04/2021 16:35:36",48742,5,3601451,"5cbe04b4f429ff00159de30e","Chrome 89.0.4389.95","retrieval_b1",2,"SS5",25,1584.80000001146,3,1,1,0,"spatial_trial","SS5",1,4,"rand","pet store.png",1,3,NA,"parrot.png",3,NA
"13/04/2021 21:35:40","13/04/2021 16:35:39",48742,5,3601451,"5cbe04b4f429ff00159de30e","Chrome 89.0.4389.95","retrieval_b1",2,"SS5",20,1330.43500001077,3,1,0,0,"spatial_trial","SS5",1,2,"pred","grocery store.png",2,4,NA,"popcornshrimp.png",4,NA
"13/04/2021 21:40:07","13/04/2021 16:40:06",48742,5,3601451,"5cbe04b4f429ff00159de30e","Chrome 89.0.4389.95","retrieval_b2",2,"SS5",25,2736.05499998666,1,1,0,0,"spatial_trial","SS5",2,4,"rand","pet store.png",1,3,NA,"deer.png",3,NA
"13/04/2021 21:40:09","13/04/2021 16:40:08",48742,5,3601451,"5cbe04b4f429ff00159de30e","Chrome 89.0.4389.95","retrieval_b2",2,"SS5",30,1501.12500000978,2,1,1,0,"spatial_trial","SS5",2,4,"rand","pet store.png",6,2,NA,"rat.png",2,NA
"13/04/2021 21:40:12","13/04/2021 16:40:11",48742,5,3601451,"5cbe04b4f429ff00159de30e","Chrome 89.0.4389.95","retrieval_b2",2,"SS5",29,2016.98499999475,4,1,1,0,"spatial_trial","SS5",2,4,"rand","pet store.png",5,4,NA,"turkey.png",4,NA
"13/04/2021 21:40:15","13/04/2021 16:40:14",48742,5,3601451,"5cbe04b4f429ff00159de30e","Chrome 89.0.4389.95","retrieval_b2",2,"SS5",24,1382.63000000734,3,1,1,0,"spatial_trial","SS5",2,3,"pred","grocery store.png",6,3,NA,"acornsquash.png",3,NA
"13/04/2021 21:40:18","13/04/2021 16:40:17",48742,5,3601451,"5cbe04b4f429ff00159de30e","Chrome 89.0.4389.95","retrieval_b2",2,"SS5",23,2069.81000001542,1,1,0,0,"spatial_trial","SS5",2,3,"pred","grocery store.png",5,2,NA,"bellpeppers.png",2,NA
"13/04/2021 21:40:20","13/04/2021 16:40:19",48742,5,3601451,"5cbe04b4f429ff00159de30e","Chrome 89.0.4389.95","retrieval_b2",2,"SS5",20,1203.45500000985,4,1,1,0,"spatial_trial","SS5",2,3,"pred","grocery store.png",2,4,NA,"cookies.png",4,NA
"13/04/2021 21:40:22","13/04/2021 16:40:21",48742,5,3601451,"5cbe04b4f429ff00159de30e","Chrome 89.0.4389.95","retrieval_b2",2,"SS5",28,1001.25500001013,1,1,1,0,"spatial_trial","SS5",2,4,"rand","pet store.png",4,1,NA,"panther.png",1,NA
"13/04/2021 21:40:25","13/04/2021 16:40:23",48742,5,3601451,"5cbe04b4f429ff00159de30e","Chrome 89.0.4389.95","retrieval_b2",2,"SS5",22,1208.67500000168,4,1,1,0,"spatial_trial","SS5",2,3,"pred","grocery store.png",4,4,NA,"lemon.png",4,NA
"13/04/2021 21:40:27","13/04/2021 16:40:26",48742,5,3601451,"5cbe04b4f429ff00159de30e","Chrome 89.0.4389.95","retrieval_b2",2,"SS5",26,1120.5300000147,1,1,1,0,"spatial_trial","SS5",2,4,"rand","pet store.png",2,1,NA,"donkey.png",1,NA
"13/04/2021 21:40:29","13/04/2021 16:40:28",48742,5,3601451,"5cbe04b4f429ff00159de30e","Chrome 89.0.4389.95","retrieval_b2",2,"SS5",27,1546.20499996236,2,1,1,0,"spatial_trial","SS5",2,4,"rand","pet store.png",3,2,NA,"eagle.png",2,NA
"13/04/2021 21:40:32","13/04/2021 16:40:31",48742,5,3601451,"5cbe04b4f429ff00159de30e","Chrome 89.0.4389.95","retrieval_b2",2,"SS5",21,1326.97499997448,3,1,1,0,"spatial_trial","SS5",2,3,"pred","grocery store.png",3,3,NA,"cantaloupe.png",3,NA
"13/04/2021 21:40:34","13/04/2021 16:40:33",48742,5,3601451,"5cbe04b4f429ff00159de30e","Chrome 89.0.4389.95","retrieval_b2",2,"SS5",19,1287.88999997778,1,1,1,0,"spatial_trial","SS5",2,3,"pred","grocery store.png",1,1,NA,"mustard.png",1,NA
"13/04/2021 21:44:17","13/04/2021 16:44:17",48742,5,3601451,"5cbe04b4f429ff00159de30e","Chrome 89.0.4389.95","retrieval_b3",2,"SS5",25,2896.56500000274,4,1,0,0,"spatial_trial","SS5",3,3,"rand","pet store.png",1,2,NA,"vulture.png",2,NA
"13/04/2021 21:44:21","13/04/2021 16:44:19",48742,5,3601451,"5cbe04b4f429ff00159de30e","Chrome 89.0.4389.95","retrieval_b3",2,"SS5",26,1895.53499995964,2,1,0,0,"spatial_trial","SS5",3,3,"rand","pet store.png",2,3,NA,"cardinal.png",3,NA
"13/04/2021 21:44:23","13/04/2021 16:44:22",48742,5,3601451,"5cbe04b4f429ff00159de30e","Chrome 89.0.4389.95","retrieval_b3",2,"SS5",30,1123.54499998037,1,1,1,0,"spatial_trial","SS5",3,3,"rand","pet store.png",6,1,NA,"polarbear.png",1,NA
"13/04/2021 21:44:25","13/04/2021 16:44:24",48742,5,3601451,"5cbe04b4f429ff00159de30e","Chrome 89.0.4389.95","retrieval_b3",2,"SS5",22,1522.53499999642,4,1,1,0,"spatial_trial","SS5",3,4,"pred","grocery store.png",4,4,NA,"corn.png",4,NA
"13/04/2021 21:44:28","13/04/2021 16:44:27",48742,5,3601451,"5cbe04b4f429ff00159de30e","Chrome 89.0.4389.95","retrieval_b3",2,"SS5",19,1727.07500000251,1,1,1,0,"spatial_trial","SS5",3,4,"pred","grocery store.png",1,1,NA,"tomato.png",1,NA
"13/04/2021 21:44:31","13/04/2021 16:44:30",48742,5,3601451,"5cbe04b4f429ff00159de30e","Chrome 89.0.4389.95","retrieval_b3",2,"SS5",29,1915.27500003576,1,1,0,0,"spatial_trial","SS5",3,3,"rand","pet store.png",5,4,NA,"wolf.png",4,NA
"13/04/2021 21:44:33","13/04/2021 16:44:32",48742,5,3601451,"5cbe04b4f429ff00159de30e","Chrome 89.0.4389.95","retrieval_b3",2,"SS5",20,973.689999955241,4,1,1,0,"spatial_trial","SS5",3,4,"pred","grocery store.png",2,4,NA,"seaweed.png",4,NA
"13/04/2021 21:44:36","13/04/2021 16:44:34",48742,5,3601451,"5cbe04b4f429ff00159de30e","Chrome 89.0.4389.95","retrieval_b3",2,"SS5",28,1143.12999998219,2,1,0,0,"spatial_trial","SS5",3,3,"rand","pet store.png",4,3,NA,"badger.png",3,NA
"13/04/2021 21:44:38","13/04/2021 16:44:37",48742,5,3601451,"5cbe04b4f429ff00159de30e","Chrome 89.0.4389.95","retrieval_b3",2,"SS5",21,1744.9299999862,4,1,0,0,"spatial_trial","SS5",3,4,"pred","grocery store.png",3,3,NA,"blackpepper.png",3,NA
"13/04/2021 21:44:40","13/04/2021 16:44:40",48742,5,3601451,"5cbe04b4f429ff00159de30e","Chrome 89.0.4389.95","retrieval_b3",2,"SS5",27,1439.24999999581,2,1,0,0,"spatial_trial","SS5",3,3,"rand","pet store.png",3,1,NA,"giraffe.png",1,NA
"13/04/2021 21:44:43","13/04/2021 16:44:42",48742,5,3601451,"5cbe04b4f429ff00159de30e","Chrome 89.0.4389.95","retrieval_b3",2,"SS5",23,1276.41500002937,2,1,1,0,"spatial_trial","SS5",3,4,"pred","grocery store.png",5,2,NA,"burger.png",2,NA
"13/04/2021 21:44:46","13/04/2021 16:44:45",48742,5,3601451,"5cbe04b4f429ff00159de30e","Chrome 89.0.4389.95","retrieval_b3",2,"SS5",24,2235.14499998419,2,1,0,0,"spatial_trial","SS5",3,4,"pred","grocery store.png",6,3,NA,"sandwich.png",3,NA
"13/04/2021 21:48:14","13/04/2021 16:48:13",48742,5,3601451,"5cbe04b4f429ff00159de30e","Chrome 89.0.4389.95","retrieval_b4",2,"SS5",29,1095.52000003168,1,1,0,0,"spatial_trial","SS5",4,2,"rand","pet store.png",5,3,NA,"fox.png",3,NA
"13/04/2021 21:48:16","13/04/2021 16:48:15",48742,5,3601451,"5cbe04b4f429ff00159de30e","Chrome 89.0.4389.95","retrieval_b4",2,"SS5",23,1040.13999999734,2,1,1,0,"spatial_trial","SS5",4,4,"pred","grocery store.png",5,2,NA,"bacon.png",2,NA
"13/04/2021 21:48:18","13/04/2021 16:48:17",48742,5,3601451,"5cbe04b4f429ff00159de30e","Chrome 89.0.4389.95","retrieval_b4",2,"SS5",27,1159.08000001218,2,1,0,0,"spatial_trial","SS5",4,2,"rand","pet store.png",3,3,NA,"bat.png",3,NA
"13/04/2021 21:48:20","13/04/2021 16:48:19",48742,5,3601451,"5cbe04b4f429ff00159de30e","Chrome 89.0.4389.95","retrieval_b4",2,"SS5",25,919.735000003129,4,1,1,0,"spatial_trial","SS5",4,2,"rand","pet store.png",1,4,NA,"canadiangoose.png",4,NA
"13/04/2021 21:48:22","13/04/2021 16:48:21",48742,5,3601451,"5cbe04b4f429ff00159de30e","Chrome 89.0.4389.95","retrieval_b4",2,"SS5",21,1366.70499999309,4,1,0,0,"spatial_trial","SS5",4,4,"pred","grocery store.png",3,3,NA,"beet.png",3,NA
"13/04/2021 21:48:25","13/04/2021 16:48:24",48742,5,3601451,"5cbe04b4f429ff00159de30e","Chrome 89.0.4389.95","retrieval_b4",2,"SS5",28,1215.68999998271,3,1,0,0,"spatial_trial","SS5",4,2,"rand","pet store.png",4,2,NA,"elephant.png",2,NA
"13/04/2021 21:48:27","13/04/2021 16:48:26",48742,5,3601451,"5cbe04b4f429ff00159de30e","Chrome 89.0.4389.95","retrieval_b4",2,"SS5",22,938.84999997681,4,1,1,0,"spatial_trial","SS5",4,4,"pred","grocery store.png",4,4,NA,"peaches.png",4,NA
"13/04/2021 21:48:29","13/04/2021 16:48:28",48742,5,3601451,"5cbe04b4f429ff00159de30e","Chrome 89.0.4389.95","retrieval_b4",2,"SS5",19,818.295000004582,1,1,1,0,"spatial_trial","SS5",4,4,"pred","grocery store.png",1,1,NA,"ravioli.png",1,NA
"13/04/2021 21:48:31","13/04/2021 16:48:30",48742,5,3601451,"5cbe04b4f429ff00159de30e","Chrome 89.0.4389.95","retrieval_b4",2,"SS5",30,1030.25499999058,2,1,0,0,"spatial_trial","SS5",4,2,"rand","pet store.png",6,1,NA,"frog.png",1,NA
"13/04/2021 21:48:33","13/04/2021 16:48:32",48742,5,3601451,"5cbe04b4f429ff00159de30e","Chrome 89.0.4389.95","retrieval_b4",2,"SS5",24,993.465000006836,3,1,1,0,"spatial_trial","SS5",4,4,"pred","grocery store.png",6,3,NA,"ramen.png",3,NA
"13/04/2021 21:48:36","13/04/2021 16:48:34",48742,5,3601451,"5cbe04b4f429ff00159de30e","Chrome 89.0.4389.95","retrieval_b4",2,"SS5",26,1359.78499997873,1,1,1,0,"spatial_trial","SS5",4,2,"rand","pet store.png",2,1,NA,"rabbit.png",1,NA
"13/04/2021 21:48:37","13/04/2021 16:48:36",48742,5,3601451,"5cbe04b4f429ff00159de30e","Chrome 89.0.4389.95","retrieval_b4",2,"SS5",20,906.420000013895,4,1,1,0,"spatial_trial","SS5",4,4,"pred","grocery store.png",2,4,NA,"egg.png",4,NA
"13/04/2021 21:53:56","13/04/2021 16:53:55",48742,5,3601451,"5cbe04b4f429ff00159de30e","Chrome 89.0.4389.95","retrieval_b5",2,"SS5",25,2178.74499998288,3,1,1,0,"spatial_trial","SS5",5,3,"rand","pet store.png",1,3,NA,"caterpillar.png",3,NA
"13/04/2021 21:53:57","13/04/2021 16:53:56",48742,5,3601451,"5cbe04b4f429ff00159de30e","Chrome 89.0.4389.95","retrieval_b5",2,"SS5",26,796.715000004042,1,1,1,0,"spatial_trial","SS5",5,3,"rand","pet store.png",2,1,NA,"hammerheadshark.png",1,NA
"13/04/2021 21:53:59","13/04/2021 16:53:58",48742,5,3601451,"5cbe04b4f429ff00159de30e","Chrome 89.0.4389.95","retrieval_b5",2,"SS5",21,864.524999982677,4,1,0,0,"spatial_trial","SS5",5,1,"pred","grocery store.png",3,3,NA,"bread.png",3,NA
"13/04/2021 21:54:01","13/04/2021 16:54:00",48742,5,3601451,"5cbe04b4f429ff00159de30e","Chrome 89.0.4389.95","retrieval_b5",2,"SS5",23,845.605000038631,3,1,0,0,"spatial_trial","SS5",5,1,"pred","grocery store.png",5,2,NA,"avocado.png",2,NA
"13/04/2021 21:54:03","13/04/2021 16:54:02",48742,5,3601451,"5cbe04b4f429ff00159de30e","Chrome 89.0.4389.95","retrieval_b5",2,"SS5",19,786.275000020396,1,1,1,0,"spatial_trial","SS5",5,1,"pred","grocery store.png",1,1,NA,"croissant.png",1,NA
"13/04/2021 21:54:06","13/04/2021 16:54:04",48742,5,3601451,"5cbe04b4f429ff00159de30e","Chrome 89.0.4389.95","retrieval_b5",2,"SS5",24,1064.1900000046,2,1,0,0,"spatial_trial","SS5",5,1,"pred","grocery store.png",6,3,NA,"granola.png",3,NA
"13/04/2021 21:54:07","13/04/2021 16:54:06",48742,5,3601451,"5cbe04b4f429ff00159de30e","Chrome 89.0.4389.95","retrieval_b5",2,"SS5",29,947.134999965783,4,1,0,0,"spatial_trial","SS5",5,3,"rand","pet store.png",5,2,NA,"panda.png",2,NA
"13/04/2021 21:54:09","13/04/2021 16:54:08",48742,5,3601451,"5cbe04b4f429ff00159de30e","Chrome 89.0.4389.95","retrieval_b5",2,"SS5",28,790.649999980815,3,1,0,0,"spatial_trial","SS5",5,3,"rand","pet store.png",4,1,NA,"crab.png",1,NA
"13/04/2021 21:54:11","13/04/2021 16:54:10",48742,5,3601451,"5cbe04b4f429ff00159de30e","Chrome 89.0.4389.95","retrieval_b5",2,"SS5",27,1038.04999997374,4,1,1,0,"spatial_trial","SS5",5,3,"rand","pet store.png",3,4,NA,"whale.png",4,NA
"13/04/2021 21:54:13","13/04/2021 16:54:12",48742,5,3601451,"5cbe04b4f429ff00159de30e","Chrome 89.0.4389.95","retrieval_b5",2,"SS5",20,1023.26999994693,4,1,1,0,"spatial_trial","SS5",5,1,"pred","grocery store.png",2,4,NA,"bagel.png",4,NA
"13/04/2021 21:54:16","13/04/2021 16:54:14",48742,5,3601451,"5cbe04b4f429ff00159de30e","Chrome 89.0.4389.95","retrieval_b5",2,"SS5",30,1111.75999999978,2,1,0,0,"spatial_trial","SS5",5,3,"rand","pet store.png",6,4,NA,"shark.png",4,NA
"13/04/2021 21:54:18","13/04/2021 16:54:17",48742,5,3601451,"5cbe04b4f429ff00159de30e","Chrome 89.0.4389.95","retrieval_b5",2,"SS5",22,1170.21000001114,3,1,0,0,"spatial_trial","SS5",5,1,"pred","grocery store.png",4,4,NA,"butter.png",4,NA
"13/04/2021 21:57:44","13/04/2021 16:57:43",48742,5,3601451,"5cbe04b4f429ff00159de30e","Chrome 89.0.4389.95","retrieval_b6",2,"SS5",25,2363.63999999594,1,1,0,0,"spatial_trial","SS5",6,1,"rand","pet store.png",1,2,NA,"camel.png",2,NA
"13/04/2021 21:57:49","13/04/2021 16:57:48",48742,5,3601451,"5cbe04b4f429ff00159de30e","Chrome 89.0.4389.95","retrieval_b6",2,"SS5",27,3241.80000001797,3,1,0,0,"spatial_trial","SS5",6,1,"rand","pet store.png",3,4,NA,"beetle.png",4,NA
"13/04/2021 21:57:51","13/04/2021 16:57:50",48742,5,3601451,"5cbe04b4f429ff00159de30e","Chrome 89.0.4389.95","retrieval_b6",2,"SS5",30,1158.23499998078,2,1,0,0,"spatial_trial","SS5",6,1,"rand","pet store.png",6,1,NA,"mantis.png",1,NA
"13/04/2021 21:57:53","13/04/2021 16:57:52",48742,5,3601451,"5cbe04b4f429ff00159de30e","Chrome 89.0.4389.95","retrieval_b6",2,"SS5",21,1471.744999988,2,1,0,0,"spatial_trial","SS5",6,2,"pred","grocery store.png",3,3,NA,"jalapeno.png",3,NA
"13/04/2021 21:57:56","13/04/2021 16:57:55",48742,5,3601451,"5cbe04b4f429ff00159de30e","Chrome 89.0.4389.95","retrieval_b6",2,"SS5",26,1160.28000001097,1,1,1,0,"spatial_trial","SS5",6,1,"rand","pet store.png",2,1,NA,"bison.png",1,NA
"13/04/2021 21:57:57","13/04/2021 16:57:56",48742,5,3601451,"5cbe04b4f429ff00159de30e","Chrome 89.0.4389.95","retrieval_b6",2,"SS5",20,862.375000026077,4,1,1,0,"spatial_trial","SS5",6,2,"pred","grocery store.png",2,4,NA,"donut.png",4,NA
"13/04/2021 21:57:59","13/04/2021 16:57:58",48742,5,3601451,"5cbe04b4f429ff00159de30e","Chrome 89.0.4389.95","retrieval_b6",2,"SS5",24,893.879999988712,3,1,1,0,"spatial_trial","SS5",6,2,"pred","grocery store.png",6,3,NA,"pineapple.png",3,NA
"13/04/2021 21:58:02","13/04/2021 16:58:01",48742,5,3601451,"5cbe04b4f429ff00159de30e","Chrome 89.0.4389.95","retrieval_b6",2,"SS5",29,1192.92499998119,2,1,0,0,"spatial_trial","SS5",6,1,"rand","pet store.png",5,4,NA,"dragonfly.png",4,NA
"13/04/2021 21:58:03","13/04/2021 16:58:02",48742,5,3601451,"5cbe04b4f429ff00159de30e","Chrome 89.0.4389.95","retrieval_b6",2,"SS5",19,792.359999963082,1,1,1,0,"spatial_trial","SS5",6,2,"pred","grocery store.png",1,1,NA,"garlic.png",1,NA
"13/04/2021 21:58:06","13/04/2021 16:58:04",48742,5,3601451,"5cbe04b4f429ff00159de30e","Chrome 89.0.4389.95","retrieval_b6",2,"SS5",23,955.0150000141,2,1,1,0,"spatial_trial","SS5",6,2,"pred","grocery store.png",5,2,NA,"soup.png",2,NA
"13/04/2021 21:58:08","13/04/2021 16:58:07",48742,5,3601451,"5cbe04b4f429ff00159de30e","Chrome 89.0.4389.95","retrieval_b6",2,"SS5",28,1245.41500001214,4,1,0,0,"spatial_trial","SS5",6,1,"rand","pet store.png",4,3,NA,"manatee.png",3,NA
"13/04/2021 21:58:10","13/04/2021 16:58:09",48742,5,3601451,"5cbe04b4f429ff00159de30e","Chrome 89.0.4389.95","retrieval_b6",2,"SS5",22,980.440000013914,4,1,1,0,"spatial_trial","SS5",6,2,"pred","grocery store.png",4,4,NA,"smores.png",4,NA
"13/04/2021 22:01:42","13/04/2021 17:01:41",48742,5,3601451,"5cbe04b4f429ff00159de30e","Chrome 89.0.4389.95","retrieval_b7",2,"SS5",28,1993.81999997422,1,1,0,0,"spatial_trial","SS5",7,2,"rand","pet store.png",4,4,NA,"cheetah.png",4,NA
"13/04/2021 22:01:44","13/04/2021 17:01:43",48742,5,3601451,"5cbe04b4f429ff00159de30e","Chrome 89.0.4389.95","retrieval_b7",2,"SS5",20,1482.60000004666,4,1,1,0,"spatial_trial","SS5",7,1,"pred","grocery store.png",2,4,NA,"asparagus.png",4,NA
"13/04/2021 22:01:46","13/04/2021 17:01:45",48742,5,3601451,"5cbe04b4f429ff00159de30e","Chrome 89.0.4389.95","retrieval_b7",2,"SS5",23,1136.79999997839,3,1,0,0,"spatial_trial","SS5",7,1,"pred","grocery store.png",5,2,NA,"brusselsprouts.png",2,NA
"13/04/2021 22:01:49","13/04/2021 17:01:48",48742,5,3601451,"5cbe04b4f429ff00159de30e","Chrome 89.0.4389.95","retrieval_b7",2,"SS5",25,1742.72500001825,1,1,0,0,"spatial_trial","SS5",7,2,"rand","pet store.png",1,2,NA,"seahorse.png",2,NA
"13/04/2021 22:01:52","13/04/2021 17:01:51",48742,5,3601451,"5cbe04b4f429ff00159de30e","Chrome 89.0.4389.95","retrieval_b7",2,"SS5",29,1866.51500000153,2,1,0,0,"spatial_trial","SS5",7,2,"rand","pet store.png",5,1,NA,"squirrel.png",1,NA
"13/04/2021 22:01:54","13/04/2021 17:01:53",48742,5,3601451,"5cbe04b4f429ff00159de30e","Chrome 89.0.4389.95","retrieval_b7",2,"SS5",27,1171.61499999929,1,1,1,0,"spatial_trial","SS5",7,2,"rand","pet store.png",3,1,NA,"squid.png",1,NA
"13/04/2021 22:01:57","13/04/2021 17:01:56",48742,5,3601451,"5cbe04b4f429ff00159de30e","Chrome 89.0.4389.95","retrieval_b7",2,"SS5",26,1324.19499999378,3,1,1,0,"spatial_trial","SS5",7,2,"rand","pet store.png",2,3,NA,"horse.png",3,NA
"13/04/2021 22:01:59","13/04/2021 17:01:58",48742,5,3601451,"5cbe04b4f429ff00159de30e","Chrome 89.0.4389.95","retrieval_b7",2,"SS5",24,1618.0549999699,3,1,1,0,"spatial_trial","SS5",7,1,"pred","grocery store.png",6,3,NA,"icecreamsandwich.png",3,NA
"13/04/2021 22:02:02","13/04/2021 17:02:01",48742,5,3601451,"5cbe04b4f429ff00159de30e","Chrome 89.0.4389.95","retrieval_b7",2,"SS5",21,1365.62499997672,3,1,1,0,"spatial_trial","SS5",7,1,"pred","grocery store.png",3,3,NA,"fortunecookie.png",3,NA
"13/04/2021 22:02:04","13/04/2021 17:02:03",48742,5,3601451,"5cbe04b4f429ff00159de30e","Chrome 89.0.4389.95","retrieval_b7",2,"SS5",22,1394.25999997184,3,1,0,0,"spatial_trial","SS5",7,1,"pred","grocery store.png",4,4,NA,"milk.png",4,NA
"13/04/2021 22:02:07","13/04/2021 17:02:06",48742,5,3601451,"5cbe04b4f429ff00159de30e","Chrome 89.0.4389.95","retrieval_b7",2,"SS5",19,1342.5050000078,1,1,1,0,"spatial_trial","SS5",7,1,"pred","grocery store.png",1,1,NA,"grapes.png",1,NA
"13/04/2021 22:02:09","13/04/2021 17:02:08",48742,5,3601451,"5cbe04b4f429ff00159de30e","Chrome 89.0.4389.95","retrieval_b7",2,"SS5",30,1603.17499999655,2,1,0,0,"spatial_trial","SS5",7,2,"rand","pet store.png",6,3,NA,"lion.png",3,NA
"13/04/2021 22:06:00","13/04/2021 17:05:59",48742,5,3601451,"5cbe04b4f429ff00159de30e","Chrome 89.0.4389.95","retrieval_b8",2,"SS5",28,1376.33499997901,1,1,1,0,"spatial_trial","SS5",8,1,"rand","pet store.png",4,1,NA,"snail.png",1,NA
"13/04/2021 22:06:03","13/04/2021 17:06:02",48742,5,3601451,"5cbe04b4f429ff00159de30e","Chrome 89.0.4389.95","retrieval_b8",2,"SS5",26,1260.63999999315,2,1,1,0,"spatial_trial","SS5",8,1,"rand","pet store.png",2,2,NA,"toad.png",2,NA
"13/04/2021 22:06:05","13/04/2021 17:06:04",48742,5,3601451,"5cbe04b4f429ff00159de30e","Chrome 89.0.4389.95","retrieval_b8",2,"SS5",20,1439.53999999212,4,1,1,0,"spatial_trial","SS5",8,3,"pred","grocery store.png",2,4,NA,"waffle.png",4,NA
"13/04/2021 22:06:07","13/04/2021 17:06:06",48742,5,3601451,"5cbe04b4f429ff00159de30e","Chrome 89.0.4389.95","retrieval_b8",2,"SS5",25,1286.49999998743,3,1,1,0,"spatial_trial","SS5",8,1,"rand","pet store.png",1,3,NA,"pelican.png",3,NA
"13/04/2021 22:06:10","13/04/2021 17:06:09",48742,5,3601451,"5cbe04b4f429ff00159de30e","Chrome 89.0.4389.95","retrieval_b8",2,"SS5",23,1128.40000004508,2,1,1,0,"spatial_trial","SS5",8,3,"pred","grocery store.png",5,2,NA,"oliveoil.png",2,NA
"13/04/2021 22:06:12","13/04/2021 17:06:11",48742,5,3601451,"5cbe04b4f429ff00159de30e","Chrome 89.0.4389.95","retrieval_b8",2,"SS5",24,1106.60500003723,4,1,0,0,"spatial_trial","SS5",8,3,"pred","grocery store.png",6,3,NA,"honeycomb.png",3,NA
"13/04/2021 22:06:14","13/04/2021 17:06:13",48742,5,3601451,"5cbe04b4f429ff00159de30e","Chrome 89.0.4389.95","retrieval_b8",2,"SS5",21,1146.91000001039,4,1,0,0,"spatial_trial","SS5",8,3,"pred","grocery store.png",3,3,NA,"pomegranate.png",3,NA
"13/04/2021 22:06:16","13/04/2021 17:06:15",48742,5,3601451,"5cbe04b4f429ff00159de30e","Chrome 89.0.4389.95","retrieval_b8",2,"SS5",19,1113.02500002785,1,1,1,0,"spatial_trial","SS5",8,3,"pred","grocery store.png",1,1,NA,"carrots.png",1,NA
"13/04/2021 22:06:19","13/04/2021 17:06:18",48742,5,3601451,"5cbe04b4f429ff00159de30e","Chrome 89.0.4389.95","retrieval_b8",2,"SS5",29,1290.72000004817,4,1,1,0,"spatial_trial","SS5",8,1,"rand","pet store.png",5,4,NA,"iguana.png",4,NA
"13/04/2021 22:06:21","13/04/2021 17:06:20",48742,5,3601451,"5cbe04b4f429ff00159de30e","Chrome 89.0.4389.95","retrieval_b8",2,"SS5",30,1281.40500001609,3,1,0,0,"spatial_trial","SS5",8,1,"rand","pet store.png",6,2,NA,"hummingbird.png",2,NA
"13/04/2021 22:06:23","13/04/2021 17:06:22",48742,5,3601451,"5cbe04b4f429ff00159de30e","Chrome 89.0.4389.95","retrieval_b8",2,"SS5",27,1180.3549999604,4,1,1,0,"spatial_trial","SS5",8,1,"rand","pet store.png",3,4,NA,"flamingo.png",4,NA
"13/04/2021 22:06:25","13/04/2021 17:06:24",48742,5,3601451,"5cbe04b4f429ff00159de30e","Chrome 89.0.4389.95","retrieval_b8",2,"SS5",22,1198.36999999825,3,1,0,0,"spatial_trial","SS5",8,3,"pred","grocery store.png",4,4,NA,"potatochips.png",4,NA
"13/04/2021 21:11:33","13/04/2021 14:11:33",48742,5,3601363,"5e6fe86f7245355b33d7b045","Chrome 87.0.4280.141","retrieval_b1",2,"SS3",23,1317.96000013128,1,1,1,0,"spatial_trial","SS3",1,1,"pred","grocery store.png",5,1,NA,"bagel.png",1,NA
"13/04/2021 21:11:35","13/04/2021 14:11:35",48742,5,3601363,"5e6fe86f7245355b33d7b045","Chrome 87.0.4280.141","retrieval_b1",2,"SS3",24,947.965000057593,3,1,0,0,"spatial_trial","SS3",1,1,"pred","grocery store.png",6,4,NA,"sandwich.png",4,NA
"13/04/2021 21:11:37","13/04/2021 14:11:36",48742,5,3601363,"5e6fe86f7245355b33d7b045","Chrome 87.0.4280.141","retrieval_b1",2,"SS3",25,732.030000071973,2,1,1,0,"spatial_trial","SS3",1,2,"rand","pet store.png",1,2,NA,"cat.png",2,NA
"13/04/2021 21:11:39","13/04/2021 14:11:38",48742,5,3601363,"5e6fe86f7245355b33d7b045","Chrome 87.0.4280.141","retrieval_b1",2,"SS3",22,951.690000016242,2,1,1,0,"spatial_trial","SS3",1,1,"pred","grocery store.png",4,2,NA,"cookies.png",2,NA
"13/04/2021 21:11:41","13/04/2021 14:11:40",48742,5,3601363,"5e6fe86f7245355b33d7b045","Chrome 87.0.4280.141","retrieval_b1",2,"SS3",29,1151.68999996968,1,1,1,0,"spatial_trial","SS3",1,2,"rand","pet store.png",5,1,NA,"deer.png",1,NA
"13/04/2021 21:11:43","13/04/2021 14:11:43",48742,5,3601363,"5e6fe86f7245355b33d7b045","Chrome 87.0.4280.141","retrieval_b1",2,"SS3",28,1171.70999990776,4,1,0,0,"spatial_trial","SS3",1,2,"rand","pet store.png",4,3,NA,"dragonfly.png",3,NA
"13/04/2021 21:11:45","13/04/2021 14:11:44",48742,5,3601363,"5e6fe86f7245355b33d7b045","Chrome 87.0.4280.141","retrieval_b1",2,"SS3",26,865.160000044852,3,1,0,0,"spatial_trial","SS3",1,2,"rand","pet store.png",2,4,NA,"polarbear.png",4,NA
"13/04/2021 21:11:47","13/04/2021 14:11:46",48742,5,3601363,"5e6fe86f7245355b33d7b045","Chrome 87.0.4280.141","retrieval_b1",2,"SS3",19,1000.13500009663,2,1,0,0,"spatial_trial","SS3",1,1,"pred","grocery store.png",1,3,NA,"cantaloupe.png",3,NA
"13/04/2021 21:11:49","13/04/2021 14:11:48",48742,5,3601363,"5e6fe86f7245355b33d7b045","Chrome 87.0.4280.141","retrieval_b1",2,"SS3",20,854.92999991402,2,1,1,0,"spatial_trial","SS3",1,1,"pred","grocery store.png",2,2,NA,"pineapple.png",2,NA
"13/04/2021 21:11:51","13/04/2021 14:11:50",48742,5,3601363,"5e6fe86f7245355b33d7b045","Chrome 87.0.4280.141","retrieval_b1",2,"SS3",21,1101.76999983378,4,1,1,0,"spatial_trial","SS3",1,1,"pred","grocery store.png",3,4,NA,"artichoke.png",4,NA
"13/04/2021 21:11:53","13/04/2021 14:11:52",48742,5,3601363,"5e6fe86f7245355b33d7b045","Chrome 87.0.4280.141","retrieval_b1",2,"SS3",27,969.55500007607,3,1,0,0,"spatial_trial","SS3",1,2,"rand","pet store.png",3,1,NA,"squirrel.png",1,NA
"13/04/2021 21:11:55","13/04/2021 14:11:54",48742,5,3601363,"5e6fe86f7245355b33d7b045","Chrome 87.0.4280.141","retrieval_b1",2,"SS3",30,1042.7600000985,4,1,1,0,"spatial_trial","SS3",1,2,"rand","pet store.png",6,4,NA,"elephant.png",4,NA
"13/04/2021 21:15:12","13/04/2021 14:15:12",48742,5,3601363,"5e6fe86f7245355b33d7b045","Chrome 87.0.4280.141","retrieval_b2",2,"SS3",30,1118.03000001237,3,1,0,0,"spatial_trial","SS3",2,3,"rand","pet store.png",6,4,NA,"pufferfish.png",4,NA
"13/04/2021 21:15:14","13/04/2021 14:15:14",48742,5,3601363,"5e6fe86f7245355b33d7b045","Chrome 87.0.4280.141","retrieval_b2",2,"SS3",21,853.194999974221,4,1,1,0,"spatial_trial","SS3",2,4,"pred","grocery store.png",3,4,NA,"ramen.png",4,NA
"13/04/2021 21:15:17","13/04/2021 14:15:16",48742,5,3601363,"5e6fe86f7245355b33d7b045","Chrome 87.0.4280.141","retrieval_b2",2,"SS3",27,1173.45999996178,2,1,0,0,"spatial_trial","SS3",2,3,"rand","pet store.png",3,3,NA,"rhino.png",3,NA
"13/04/2021 21:15:18","13/04/2021 14:15:18",48742,5,3601363,"5e6fe86f7245355b33d7b045","Chrome 87.0.4280.141","retrieval_b2",2,"SS3",29,691.494999919087,1,1,1,0,"spatial_trial","SS3",2,3,"rand","pet store.png",5,1,NA,"chicken.png",1,NA
"13/04/2021 21:15:20","13/04/2021 14:15:20",48742,5,3601363,"5e6fe86f7245355b33d7b045","Chrome 87.0.4280.141","retrieval_b2",2,"SS3",26,1090.16500017606,4,1,0,0,"spatial_trial","SS3",2,3,"rand","pet store.png",2,1,NA,"ferret.png",1,NA
"13/04/2021 21:15:24","13/04/2021 14:15:23",48742,5,3601363,"5e6fe86f7245355b33d7b045","Chrome 87.0.4280.141","retrieval_b2",2,"SS3",22,2186.62499985658,1,1,0,0,"spatial_trial","SS3",2,4,"pred","grocery store.png",4,2,NA,"icecreamsandwich.png",2,NA
"13/04/2021 21:15:26","13/04/2021 14:15:25",48742,5,3601363,"5e6fe86f7245355b33d7b045","Chrome 87.0.4280.141","retrieval_b2",2,"SS3",25,1156.48000012152,2,1,1,0,"spatial_trial","SS3",2,3,"rand","pet store.png",1,2,NA,"wolf.png",2,NA
"13/04/2021 21:15:29","13/04/2021 14:15:27",48742,5,3601363,"5e6fe86f7245355b33d7b045","Chrome 87.0.4280.141","retrieval_b2",2,"SS3",19,1102.72000008263,3,1,1,0,"spatial_trial","SS3",2,4,"pred","grocery store.png",1,3,NA,"orange.png",3,NA
"13/04/2021 21:15:30","13/04/2021 14:15:30",48742,5,3601363,"5e6fe86f7245355b33d7b045","Chrome 87.0.4280.141","retrieval_b2",2,"SS3",28,1624.26499999128,4,1,1,0,"spatial_trial","SS3",2,3,"rand","pet store.png",4,4,NA,"beetle.png",4,NA
"13/04/2021 21:15:33","13/04/2021 14:15:32",48742,5,3601363,"5e6fe86f7245355b33d7b045","Chrome 87.0.4280.141","retrieval_b2",2,"SS3",23,778.279999969527,2,1,0,0,"spatial_trial","SS3",2,4,"pred","grocery store.png",5,1,NA,"potatochips.png",1,NA
"13/04/2021 21:15:34","13/04/2021 14:15:34",48742,5,3601363,"5e6fe86f7245355b33d7b045","Chrome 87.0.4280.141","retrieval_b2",2,"SS3",20,841.314999852329,2,1,1,0,"spatial_trial","SS3",2,4,"pred","grocery store.png",2,2,NA,"honeycomb.png",2,NA
"13/04/2021 21:15:36","13/04/2021 14:15:35",48742,5,3601363,"5e6fe86f7245355b33d7b045","Chrome 87.0.4280.141","retrieval_b2",2,"SS3",24,753.860000055283,4,1,1,0,"spatial_trial","SS3",2,4,"pred","grocery store.png",6,4,NA,"avocado.png",4,NA
"13/04/2021 21:18:58","13/04/2021 14:18:57",48742,5,3601363,"5e6fe86f7245355b33d7b045","Chrome 87.0.4280.141","retrieval_b3",2,"SS3",23,1457.20499986783,1,1,1,0,"spatial_trial","SS3",3,2,"pred","grocery store.png",5,1,NA,"butter.png",1,NA
"13/04/2021 21:19:00","13/04/2021 14:18:59",48742,5,3601363,"5e6fe86f7245355b33d7b045","Chrome 87.0.4280.141","retrieval_b3",2,"SS3",21,965.994999976829,4,1,1,0,"spatial_trial","SS3",3,2,"pred","grocery store.png",3,4,NA,"guava.png",4,NA
"13/04/2021 21:19:02","13/04/2021 14:19:01",48742,5,3601363,"5e6fe86f7245355b33d7b045","Chrome 87.0.4280.141","retrieval_b3",2,"SS3",19,807.229999918491,3,1,1,0,"spatial_trial","SS3",3,2,"pred","grocery store.png",1,3,NA,"ravioli.png",3,NA
"13/04/2021 21:19:03","13/04/2021 14:19:03",48742,5,3601363,"5e6fe86f7245355b33d7b045","Chrome 87.0.4280.141","retrieval_b3",2,"SS3",26,691.570000024512,2,1,1,0,"spatial_trial","SS3",3,4,"rand","pet store.png",2,2,NA,"canadiangoose.png",2,NA
"13/04/2021 21:19:05","13/04/2021 14:19:05",48742,5,3601363,"5e6fe86f7245355b33d7b045","Chrome 87.0.4280.141","retrieval_b3",2,"SS3",30,1036.89999994822,1,1,0,0,"spatial_trial","SS3",3,4,"rand","pet store.png",6,3,NA,"snake.png",3,NA
"13/04/2021 21:19:07","13/04/2021 14:19:07",48742,5,3601363,"5e6fe86f7245355b33d7b045","Chrome 87.0.4280.141","retrieval_b3",2,"SS3",27,823.855000082403,3,1,0,0,"spatial_trial","SS3",3,4,"rand","pet store.png",3,1,NA,"hammerheadshark.png",1,NA
"13/04/2021 21:19:09","13/04/2021 14:19:09",48742,5,3601363,"5e6fe86f7245355b33d7b045","Chrome 87.0.4280.141","retrieval_b3",2,"SS3",22,834.07499990426,2,1,1,0,"spatial_trial","SS3",3,2,"pred","grocery store.png",4,2,NA,"peaches.png",2,NA
"13/04/2021 21:19:11","13/04/2021 14:19:10",48742,5,3601363,"5e6fe86f7245355b33d7b045","Chrome 87.0.4280.141","retrieval_b3",2,"SS3",24,750.669999979436,4,1,1,0,"spatial_trial","SS3",3,2,"pred","grocery store.png",6,4,NA,"broccoli.png",4,NA
"13/04/2021 21:19:13","13/04/2021 14:19:12",48742,5,3601363,"5e6fe86f7245355b33d7b045","Chrome 87.0.4280.141","retrieval_b3",2,"SS3",20,1036.9949999731,3,1,0,0,"spatial_trial","SS3",3,2,"pred","grocery store.png",2,2,NA,"watermelon.png",2,NA
"13/04/2021 21:19:15","13/04/2021 14:19:14",48742,5,3601363,"5e6fe86f7245355b33d7b045","Chrome 87.0.4280.141","retrieval_b3",2,"SS3",28,858.119999989867,2,1,0,0,"spatial_trial","SS3",3,4,"rand","pet store.png",4,3,NA,"redpanda.png",3,NA
"13/04/2021 21:19:17","13/04/2021 14:19:16",48742,5,3601363,"5e6fe86f7245355b33d7b045","Chrome 87.0.4280.141","retrieval_b3",2,"SS3",29,937.290000030771,1,1,0,0,"spatial_trial","SS3",3,4,"rand","pet store.png",5,2,NA,"boar.png",2,NA
"13/04/2021 21:19:19","13/04/2021 14:19:18",48742,5,3601363,"5e6fe86f7245355b33d7b045","Chrome 87.0.4280.141","retrieval_b3",2,"SS3",25,809.824999887496,2,1,0,0,"spatial_trial","SS3",3,4,"rand","pet store.png",1,4,NA,"whale.png",4,NA
