"utc_date","local_date","exp_id","exp_ver","id","prolific_id","browser","task","task_ver","gorilla_counterbalance","trial_row","screen_name","zone_type","rt","response","attempt","accuracy","dishonest","display","counterbalance_order","condition","event_name","seq_pos","correct","test_rep"
"13/04/2021 00:31:06","12/04/2021 19:31:06",48742,5,3590485,"5d6f332829c25100188a4a27","Chrome 89.0.4389.114","reminder",5,"SS4",20,"Screen 1","response_keyboard",648.940000000948,3,1,1,0,"test_trial","SS4","pred","pet store.png",1,3,1
"13/04/2021 00:31:08","12/04/2021 19:31:09",48742,5,3590485,"5d6f332829c25100188a4a27","Chrome 89.0.4389.114","reminder",5,"SS4",21,"Screen 1","response_keyboard",1854.80000000098,2,1,1,0,"test_trial","SS4","pred","pet store.png",2,2,1
"13/04/2021 00:31:10","12/04/2021 19:31:10",48742,5,3590485,"5d6f332829c25100188a4a27","Chrome 89.0.4389.114","reminder",5,"SS4",22,"Screen 1","response_keyboard",994.999999998981,4,1,1,0,"test_trial","SS4","pred","pet store.png",3,4,1
"13/04/2021 00:31:11","12/04/2021 19:31:12",48742,5,3590485,"5d6f332829c25100188a4a27","Chrome 89.0.4389.114","reminder",5,"SS4",23,"Screen 1","response_keyboard",849.104999999327,2,1,1,0,"test_trial","SS4","pred","pet store.png",4,2,1
"13/04/2021 00:31:13","12/04/2021 19:31:14",48742,5,3590485,"5d6f332829c25100188a4a27","Chrome 89.0.4389.114","reminder",5,"SS4",24,"Screen 1","response_keyboard",1378.76499999948,1,1,1,0,"test_trial","SS4","pred","pet store.png",5,1,1
"13/04/2021 00:31:14","12/04/2021 19:31:15",48742,5,3590485,"5d6f332829c25100188a4a27","Chrome 89.0.4389.114","reminder",5,"SS4",25,"Screen 1","response_keyboard",624.100000000908,4,1,1,0,"test_trial","SS4","pred","pet store.png",6,4,1
"13/04/2021 00:31:20","12/04/2021 19:31:20",48742,5,3590485,"5d6f332829c25100188a4a27","Chrome 89.0.4389.114","reminder",5,"SS4",28,"Screen 1","response_keyboard",883.934999999838,3,1,1,0,"test_trial","SS4","pred","pet store.png",1,3,2
"13/04/2021 00:31:21","12/04/2021 19:31:21",48742,5,3590485,"5d6f332829c25100188a4a27","Chrome 89.0.4389.114","reminder",5,"SS4",29,"Screen 1","response_keyboard",319.949999999153,2,1,1,0,"test_trial","SS4","pred","pet store.png",2,2,2
"13/04/2021 00:31:22","12/04/2021 19:31:22",48742,5,3590485,"5d6f332829c25100188a4a27","Chrome 89.0.4389.114","reminder",5,"SS4",30,"Screen 1","response_keyboard",345.310000000609,4,1,1,0,"test_trial","SS4","pred","pet store.png",3,4,2
"13/04/2021 00:31:23","12/04/2021 19:31:23",48742,5,3590485,"5d6f332829c25100188a4a27","Chrome 89.0.4389.114","reminder",5,"SS4",31,"Screen 1","response_keyboard",344.859999999244,2,1,1,0,"test_trial","SS4","pred","pet store.png",4,2,2
"13/04/2021 00:31:25","12/04/2021 19:31:25",48742,5,3590485,"5d6f332829c25100188a4a27","Chrome 89.0.4389.114","reminder",5,"SS4",32,"Screen 1","response_keyboard",1350.79000000042,4,1,0,0,"test_trial","SS4","pred","pet store.png",5,1,2
"13/04/2021 00:31:25","12/04/2021 19:31:25",48742,5,3590485,"5d6f332829c25100188a4a27","Chrome 89.0.4389.114","reminder",5,"SS4",33,"Screen 1","response_keyboard",2.44500000007974,4,1,1,0,"test_trial","SS4","pred","pet store.png",6,4,2
"13/04/2021 02:51:14","12/04/2021 21:51:13",48742,5,3591005,"5cc65d95050b2e00154babac","Chrome 89.0.4389.114","reminder",5,"SS3",20,"Screen 1","response_keyboard",619.420000002719,3,1,1,0,"test_trial","SS3","pred","grocery store.png",1,3,1
"13/04/2021 02:51:15","12/04/2021 21:51:13",48742,5,3591005,"5cc65d95050b2e00154babac","Chrome 89.0.4389.114","reminder",5,"SS3",21,"Screen 1","response_keyboard",39.3150000600144,2,1,1,0,"test_trial","SS3","pred","grocery store.png",2,2,1
"13/04/2021 02:51:16","12/04/2021 21:51:14",48742,5,3591005,"5cc65d95050b2e00154babac","Chrome 89.0.4389.114","reminder",5,"SS3",22,"Screen 1","response_keyboard",206.450000056066,4,1,1,0,"test_trial","SS3","pred","grocery store.png",3,4,1
"13/04/2021 02:51:17","12/04/2021 21:51:15",48742,5,3591005,"5cc65d95050b2e00154babac","Chrome 89.0.4389.114","reminder",5,"SS3",23,"Screen 1","response_keyboard",97.8650000179186,2,1,1,0,"test_trial","SS3","pred","grocery store.png",4,2,1
"13/04/2021 02:51:17","12/04/2021 21:51:16",48742,5,3591005,"5cc65d95050b2e00154babac","Chrome 89.0.4389.114","reminder",5,"SS3",24,"Screen 1","response_keyboard",141.115000005811,1,1,1,0,"test_trial","SS3","pred","grocery store.png",5,1,1
"13/04/2021 02:51:18","12/04/2021 21:51:16",48742,5,3591005,"5cc65d95050b2e00154babac","Chrome 89.0.4389.114","reminder",5,"SS3",25,"Screen 1","response_keyboard",23.879999993369,4,1,1,0,"test_trial","SS3","pred","grocery store.png",6,4,1
"13/04/2021 02:51:23","12/04/2021 21:51:22",48742,5,3591005,"5cc65d95050b2e00154babac","Chrome 89.0.4389.114","reminder",5,"SS3",28,"Screen 1","response_keyboard",520.714999991469,3,1,1,0,"test_trial","SS3","pred","grocery store.png",1,3,2
"13/04/2021 02:51:24","12/04/2021 21:51:22",48742,5,3591005,"5cc65d95050b2e00154babac","Chrome 89.0.4389.114","reminder",5,"SS3",29,"Screen 1","response_keyboard",36.3699999870732,2,1,1,0,"test_trial","SS3","pred","grocery store.png",2,2,2
"13/04/2021 02:51:25","12/04/2021 21:51:23",48742,5,3591005,"5cc65d95050b2e00154babac","Chrome 89.0.4389.114","reminder",5,"SS3",30,"Screen 1","response_keyboard",74.8750000493601,4,1,1,0,"test_trial","SS3","pred","grocery store.png",3,4,2
"13/04/2021 02:51:25","12/04/2021 21:51:23",48742,5,3591005,"5cc65d95050b2e00154babac","Chrome 89.0.4389.114","reminder",5,"SS3",31,"Screen 1","response_keyboard",30.4450000403449,2,1,1,0,"test_trial","SS3","pred","grocery store.png",4,2,2
"13/04/2021 02:51:26","12/04/2021 21:51:24",48742,5,3591005,"5cc65d95050b2e00154babac","Chrome 89.0.4389.114","reminder",5,"SS3",32,"Screen 1","response_keyboard",90.3449999168515,1,1,1,0,"test_trial","SS3","pred","grocery store.png",5,1,2
"13/04/2021 02:51:27","12/04/2021 21:51:25",48742,5,3591005,"5cc65d95050b2e00154babac","Chrome 89.0.4389.114","reminder",5,"SS3",33,"Screen 1","response_keyboard",613.245000015013,4,1,1,0,"test_trial","SS3","pred","grocery store.png",6,4,2
"13/04/2021 03:04:54","12/04/2021 20:04:54",48742,5,3591057,"60286182887e6f1aac272ed5","Chrome 89.0.4389.114","reminder",5,"SS8",20,"Screen 1","response_keyboard",683.500000042841,3,1,1,0,"test_trial","SS8","pred","pet store.png",1,3,1
"13/04/2021 03:04:55","12/04/2021 20:04:55",48742,5,3591057,"60286182887e6f1aac272ed5","Chrome 89.0.4389.114","reminder",5,"SS8",21,"Screen 1","response_keyboard",655.484999995679,2,1,1,0,"test_trial","SS8","pred","pet store.png",2,2,1
"13/04/2021 03:04:56","12/04/2021 20:04:56",48742,5,3591057,"60286182887e6f1aac272ed5","Chrome 89.0.4389.114","reminder",5,"SS8",22,"Screen 1","response_keyboard",241.930000018328,4,1,1,0,"test_trial","SS8","pred","pet store.png",3,4,1
"13/04/2021 03:04:57","12/04/2021 20:04:57",48742,5,3591057,"60286182887e6f1aac272ed5","Chrome 89.0.4389.114","reminder",5,"SS8",23,"Screen 1","response_keyboard",181.949999881908,2,1,1,0,"test_trial","SS8","pred","pet store.png",4,2,1
"13/04/2021 03:04:58","12/04/2021 20:04:57",48742,5,3591057,"60286182887e6f1aac272ed5","Chrome 89.0.4389.114","reminder",5,"SS8",24,"Screen 1","response_keyboard",227.405000012368,1,1,1,0,"test_trial","SS8","pred","pet store.png",5,1,1
"13/04/2021 03:04:58","12/04/2021 20:04:58",48742,5,3591057,"60286182887e6f1aac272ed5","Chrome 89.0.4389.114","reminder",5,"SS8",25,"Screen 1","response_keyboard",214.549999916926,4,1,1,0,"test_trial","SS8","pred","pet store.png",6,4,1
"13/04/2021 03:05:04","12/04/2021 20:05:04",48742,5,3591057,"60286182887e6f1aac272ed5","Chrome 89.0.4389.114","reminder",5,"SS8",28,"Screen 1","response_keyboard",516.79000002332,3,1,1,0,"test_trial","SS8","pred","pet store.png",1,3,2
"13/04/2021 03:05:05","12/04/2021 20:05:04",48742,5,3591057,"60286182887e6f1aac272ed5","Chrome 89.0.4389.114","reminder",5,"SS8",29,"Screen 1","response_keyboard",36.3199999555945,2,1,1,0,"test_trial","SS8","pred","pet store.png",2,2,2
"13/04/2021 03:05:06","12/04/2021 20:05:05",48742,5,3591057,"60286182887e6f1aac272ed5","Chrome 89.0.4389.114","reminder",5,"SS8",30,"Screen 1","response_keyboard",116.094999946654,4,1,1,0,"test_trial","SS8","pred","pet store.png",3,4,2
"13/04/2021 03:05:07","12/04/2021 20:05:06",48742,5,3591057,"60286182887e6f1aac272ed5","Chrome 89.0.4389.114","reminder",5,"SS8",31,"Screen 1","response_keyboard",181.919999886304,2,1,1,0,"test_trial","SS8","pred","pet store.png",4,2,2
"13/04/2021 03:05:07","12/04/2021 20:05:06",48742,5,3591057,"60286182887e6f1aac272ed5","Chrome 89.0.4389.114","reminder",5,"SS8",32,"Screen 1","response_keyboard",146.699999924749,1,1,1,0,"test_trial","SS8","pred","pet store.png",5,1,2
"13/04/2021 03:05:07","12/04/2021 20:05:07",48742,5,3591057,"60286182887e6f1aac272ed5","Chrome 89.0.4389.114","reminder",5,"SS8",33,"Screen 1","response_keyboard",144.149999832734,4,1,1,0,"test_trial","SS8","pred","pet store.png",6,4,2
"13/04/2021 15:15:43","13/04/2021 11:15:46",48742,5,3598281,"5e3adfc595ff562fbdd130fa","Edge 89.0.774.75","reminder",5,"SS5",20,"Screen 1","response_keyboard",499.609999998938,1,1,1,0,"test_trial","SS5","pred","grocery store.png",1,1,1
"13/04/2021 15:15:44","13/04/2021 11:15:47",48742,5,3598281,"5e3adfc595ff562fbdd130fa","Edge 89.0.774.75","reminder",5,"SS5",21,"Screen 1","response_keyboard",476.094999998168,4,1,1,0,"test_trial","SS5","pred","grocery store.png",2,4,1
"13/04/2021 15:15:45","13/04/2021 11:15:48",48742,5,3598281,"5e3adfc595ff562fbdd130fa","Edge 89.0.774.75","reminder",5,"SS5",22,"Screen 1","response_keyboard",312.239999999292,3,1,1,0,"test_trial","SS5","pred","grocery store.png",3,3,1
"13/04/2021 15:15:46","13/04/2021 11:15:49",48742,5,3598281,"5e3adfc595ff562fbdd130fa","Edge 89.0.774.75","reminder",5,"SS5",23,"Screen 1","response_keyboard",291.745000002265,4,1,1,0,"test_trial","SS5","pred","grocery store.png",4,4,1
"13/04/2021 15:15:47","13/04/2021 11:15:50",48742,5,3598281,"5e3adfc595ff562fbdd130fa","Edge 89.0.774.75","reminder",5,"SS5",24,"Screen 1","response_keyboard",324.569999997038,2,1,1,0,"test_trial","SS5","pred","grocery store.png",5,2,1
"13/04/2021 15:15:48","13/04/2021 11:15:50",48742,5,3598281,"5e3adfc595ff562fbdd130fa","Edge 89.0.774.75","reminder",5,"SS5",25,"Screen 1","response_keyboard",295.860000005632,3,1,1,0,"test_trial","SS5","pred","grocery store.png",6,3,1
"13/04/2021 15:15:53","13/04/2021 11:15:56",48742,5,3598281,"5e3adfc595ff562fbdd130fa","Edge 89.0.774.75","reminder",5,"SS5",28,"Screen 1","response_keyboard",509.165000003122,1,1,1,0,"test_trial","SS5","pred","grocery store.png",1,1,2
"13/04/2021 15:15:54","13/04/2021 11:15:56",48742,5,3598281,"5e3adfc595ff562fbdd130fa","Edge 89.0.774.75","reminder",5,"SS5",29,"Screen 1","response_keyboard",199.670000001788,4,1,1,0,"test_trial","SS5","pred","grocery store.png",2,4,2
"13/04/2021 15:15:54","13/04/2021 11:15:57",48742,5,3598281,"5e3adfc595ff562fbdd130fa","Edge 89.0.774.75","reminder",5,"SS5",30,"Screen 1","response_keyboard",174.525000002177,3,1,1,0,"test_trial","SS5","pred","grocery store.png",3,3,2
"13/04/2021 15:15:55","13/04/2021 11:15:58",48742,5,3598281,"5e3adfc595ff562fbdd130fa","Edge 89.0.774.75","reminder",5,"SS5",31,"Screen 1","response_keyboard",204.470000004221,4,1,1,0,"test_trial","SS5","pred","grocery store.png",4,4,2
"13/04/2021 15:15:56","13/04/2021 11:15:59",48742,5,3598281,"5e3adfc595ff562fbdd130fa","Edge 89.0.774.75","reminder",5,"SS5",32,"Screen 1","response_keyboard",257.239999999001,2,1,1,0,"test_trial","SS5","pred","grocery store.png",5,2,2
"13/04/2021 15:15:57","13/04/2021 11:15:59",48742,5,3598281,"5e3adfc595ff562fbdd130fa","Edge 89.0.774.75","reminder",5,"SS5",33,"Screen 1","response_keyboard",265.140000003157,3,1,1,0,"test_trial","SS5","pred","grocery store.png",6,3,2
"13/04/2021 15:17:14","13/04/2021 11:17:14",48742,5,3598258,"5e8bd7044f71ac0c45cb3b52","Chrome 88.0.4324.192","reminder",5,"SS1",20,"Screen 1","response_keyboard",2056.18999991566,1,1,1,0,"test_trial","SS1","pred","grocery store.png",1,1,1
"13/04/2021 15:17:15","13/04/2021 11:17:15",48742,5,3598258,"5e8bd7044f71ac0c45cb3b52","Chrome 88.0.4324.192","reminder",5,"SS1",21,"Screen 1","response_keyboard",397.489999886602,4,1,1,0,"test_trial","SS1","pred","grocery store.png",2,4,1
"13/04/2021 15:17:16","13/04/2021 11:17:15",48742,5,3598258,"5e8bd7044f71ac0c45cb3b52","Chrome 88.0.4324.192","reminder",5,"SS1",22,"Screen 1","response_keyboard",284.660000121221,3,1,1,0,"test_trial","SS1","pred","grocery store.png",3,3,1
"13/04/2021 15:17:16","13/04/2021 11:17:16",48742,5,3598258,"5e8bd7044f71ac0c45cb3b52","Chrome 88.0.4324.192","reminder",5,"SS1",23,"Screen 1","response_keyboard",187.284999992698,4,1,1,0,"test_trial","SS1","pred","grocery store.png",4,4,1
"13/04/2021 15:17:17","13/04/2021 11:17:17",48742,5,3598258,"5e8bd7044f71ac0c45cb3b52","Chrome 88.0.4324.192","reminder",5,"SS1",24,"Screen 1","response_keyboard",70.6650000065565,2,1,1,0,"test_trial","SS1","pred","grocery store.png",5,2,1
"13/04/2021 15:17:18","13/04/2021 11:17:18",48742,5,3598258,"5e8bd7044f71ac0c45cb3b52","Chrome 88.0.4324.192","reminder",5,"SS1",25,"Screen 1","response_keyboard",784.669999964535,3,1,1,0,"test_trial","SS1","pred","grocery store.png",6,3,1
"13/04/2021 15:17:24","13/04/2021 11:17:24",48742,5,3598258,"5e8bd7044f71ac0c45cb3b52","Chrome 88.0.4324.192","reminder",5,"SS1",28,"Screen 1","response_keyboard",788.285000016913,1,1,1,0,"test_trial","SS1","pred","grocery store.png",1,1,2
"13/04/2021 15:17:25","13/04/2021 11:17:25",48742,5,3598258,"5e8bd7044f71ac0c45cb3b52","Chrome 88.0.4324.192","reminder",5,"SS1",29,"Screen 1","response_keyboard",752.235000021756,4,1,1,0,"test_trial","SS1","pred","grocery store.png",2,4,2
"13/04/2021 15:17:26","13/04/2021 11:17:26",48742,5,3598258,"5e8bd7044f71ac0c45cb3b52","Chrome 88.0.4324.192","reminder",5,"SS1",30,"Screen 1","response_keyboard",163.830000208691,3,1,1,0,"test_trial","SS1","pred","grocery store.png",3,3,2
"13/04/2021 15:17:27","13/04/2021 11:17:27",48742,5,3598258,"5e8bd7044f71ac0c45cb3b52","Chrome 88.0.4324.192","reminder",5,"SS1",31,"Screen 1","response_keyboard",465.984999900684,4,1,1,0,"test_trial","SS1","pred","grocery store.png",4,4,2
"13/04/2021 15:17:28","13/04/2021 11:17:28",48742,5,3598258,"5e8bd7044f71ac0c45cb3b52","Chrome 88.0.4324.192","reminder",5,"SS1",32,"Screen 1","response_keyboard",509.489999851212,2,1,1,0,"test_trial","SS1","pred","grocery store.png",5,2,2
"13/04/2021 15:17:29","13/04/2021 11:17:28",48742,5,3598258,"5e8bd7044f71ac0c45cb3b52","Chrome 88.0.4324.192","reminder",5,"SS1",33,"Screen 1","response_keyboard",135.340000037104,3,1,1,0,"test_trial","SS1","pred","grocery store.png",6,3,2
"13/04/2021 15:20:53","13/04/2021 08:20:51",48742,5,3598332,"5f4d1708e4aa390b8063c42d","Chrome 89.0.4389.114","reminder",5,"SS2",20,"Screen 1","response_keyboard",575.970000005327,1,1,1,0,"test_trial","SS2","pred","pet store.png",1,1,1
"13/04/2021 15:20:54","13/04/2021 08:20:52",48742,5,3598332,"5f4d1708e4aa390b8063c42d","Chrome 89.0.4389.114","reminder",5,"SS2",21,"Screen 1","response_keyboard",441.259999992326,4,1,1,0,"test_trial","SS2","pred","pet store.png",2,4,1
"13/04/2021 15:20:55","13/04/2021 08:20:53",48742,5,3598332,"5f4d1708e4aa390b8063c42d","Chrome 89.0.4389.114","reminder",5,"SS2",22,"Screen 1","response_keyboard",280.30499999295,3,1,1,0,"test_trial","SS2","pred","pet store.png",3,3,1
"13/04/2021 15:20:56","13/04/2021 08:20:54",48742,5,3598332,"5f4d1708e4aa390b8063c42d","Chrome 89.0.4389.114","reminder",5,"SS2",23,"Screen 1","response_keyboard",266.364999988582,4,1,1,0,"test_trial","SS2","pred","pet store.png",4,4,1
"13/04/2021 15:20:56","13/04/2021 08:20:54",48742,5,3598332,"5f4d1708e4aa390b8063c42d","Chrome 89.0.4389.114","reminder",5,"SS2",24,"Screen 1","response_keyboard",230.999999999767,2,1,1,0,"test_trial","SS2","pred","pet store.png",5,2,1
"13/04/2021 15:20:57","13/04/2021 08:20:55",48742,5,3598332,"5f4d1708e4aa390b8063c42d","Chrome 89.0.4389.114","reminder",5,"SS2",25,"Screen 1","response_keyboard",274.729999990086,3,1,1,0,"test_trial","SS2","pred","pet store.png",6,3,1
"13/04/2021 15:21:02","13/04/2021 08:21:00",48742,5,3598332,"5f4d1708e4aa390b8063c42d","Chrome 89.0.4389.114","reminder",5,"SS2",28,"Screen 1","response_keyboard",505.06999999925,1,1,1,0,"test_trial","SS2","pred","pet store.png",1,1,2
"13/04/2021 15:21:03","13/04/2021 08:21:01",48742,5,3598332,"5f4d1708e4aa390b8063c42d","Chrome 89.0.4389.114","reminder",5,"SS2",29,"Screen 1","response_keyboard",309.045000001788,4,1,1,0,"test_trial","SS2","pred","pet store.png",2,4,2
"13/04/2021 15:21:04","13/04/2021 08:21:02",48742,5,3598332,"5f4d1708e4aa390b8063c42d","Chrome 89.0.4389.114","reminder",5,"SS2",30,"Screen 1","response_keyboard",266.360000008717,3,1,1,0,"test_trial","SS2","pred","pet store.png",3,3,2
"13/04/2021 15:21:05","13/04/2021 08:21:03",48742,5,3598332,"5f4d1708e4aa390b8063c42d","Chrome 89.0.4389.114","reminder",5,"SS2",31,"Screen 1","response_keyboard",257.675000000745,4,1,1,0,"test_trial","SS2","pred","pet store.png",4,4,2
"13/04/2021 15:21:06","13/04/2021 08:21:04",48742,5,3598332,"5f4d1708e4aa390b8063c42d","Chrome 89.0.4389.114","reminder",5,"SS2",32,"Screen 1","response_keyboard",252.000000007683,2,1,1,0,"test_trial","SS2","pred","pet store.png",5,2,2
"13/04/2021 15:21:06","13/04/2021 08:21:04",48742,5,3598332,"5f4d1708e4aa390b8063c42d","Chrome 89.0.4389.114","reminder",5,"SS2",33,"Screen 1","response_keyboard",233.350000009523,3,1,1,0,"test_trial","SS2","pred","pet store.png",6,3,2
"13/04/2021 15:25:05","13/04/2021 10:25:04",48742,5,3598428,"60660870280f2b522cc3214b","Chrome 89.0.4389.114","reminder",5,"SS6",20,"Screen 1","response_keyboard",642.61500001885,1,1,1,0,"test_trial","SS6","pred","pet store.png",1,1,1
"13/04/2021 15:25:06","13/04/2021 10:25:05",48742,5,3598428,"60660870280f2b522cc3214b","Chrome 89.0.4389.114","reminder",5,"SS6",21,"Screen 1","response_keyboard",396.270000026561,4,1,1,0,"test_trial","SS6","pred","pet store.png",2,4,1
"13/04/2021 15:25:07","13/04/2021 10:25:06",48742,5,3598428,"60660870280f2b522cc3214b","Chrome 89.0.4389.114","reminder",5,"SS6",22,"Screen 1","response_keyboard",196.204999927431,3,1,1,0,"test_trial","SS6","pred","pet store.png",3,3,1
"13/04/2021 15:25:07","13/04/2021 10:25:07",48742,5,3598428,"60660870280f2b522cc3214b","Chrome 89.0.4389.114","reminder",5,"SS6",23,"Screen 1","response_keyboard",242.57999996189,4,1,1,0,"test_trial","SS6","pred","pet store.png",4,4,1
"13/04/2021 15:25:08","13/04/2021 10:25:07",48742,5,3598428,"60660870280f2b522cc3214b","Chrome 89.0.4389.114","reminder",5,"SS6",24,"Screen 1","response_keyboard",229.114999994636,2,1,1,0,"test_trial","SS6","pred","pet store.png",5,2,1
"13/04/2021 15:25:09","13/04/2021 10:25:08",48742,5,3598428,"60660870280f2b522cc3214b","Chrome 89.0.4389.114","reminder",5,"SS6",25,"Screen 1","response_keyboard",199.099999968894,3,1,1,0,"test_trial","SS6","pred","pet store.png",6,3,1
"13/04/2021 15:25:14","13/04/2021 10:25:13",48742,5,3598428,"60660870280f2b522cc3214b","Chrome 89.0.4389.114","reminder",5,"SS6",28,"Screen 1","response_keyboard",624.199999962002,1,1,1,0,"test_trial","SS6","pred","pet store.png",1,1,2
"13/04/2021 15:25:15","13/04/2021 10:25:14",48742,5,3598428,"60660870280f2b522cc3214b","Chrome 89.0.4389.114","reminder",5,"SS6",29,"Screen 1","response_keyboard",378.004999947734,4,1,1,0,"test_trial","SS6","pred","pet store.png",2,4,2
"13/04/2021 15:25:16","13/04/2021 10:25:15",48742,5,3598428,"60660870280f2b522cc3214b","Chrome 89.0.4389.114","reminder",5,"SS6",30,"Screen 1","response_keyboard",155.2349999547,3,1,1,0,"test_trial","SS6","pred","pet store.png",3,3,2
"13/04/2021 15:25:17","13/04/2021 10:25:16",48742,5,3598428,"60660870280f2b522cc3214b","Chrome 89.0.4389.114","reminder",5,"SS6",31,"Screen 1","response_keyboard",190.999999991618,4,1,1,0,"test_trial","SS6","pred","pet store.png",4,4,2
"13/04/2021 15:25:17","13/04/2021 10:25:16",48742,5,3598428,"60660870280f2b522cc3214b","Chrome 89.0.4389.114","reminder",5,"SS6",32,"Screen 1","response_keyboard",225.8950000396,2,1,1,0,"test_trial","SS6","pred","pet store.png",5,2,2
"13/04/2021 15:25:18","13/04/2021 10:25:17",48742,5,3598428,"60660870280f2b522cc3214b","Chrome 89.0.4389.114","reminder",5,"SS6",33,"Screen 1","response_keyboard",195.569999981672,3,1,1,0,"test_trial","SS6","pred","pet store.png",6,3,2
"13/04/2021 16:04:33","13/04/2021 12:04:34",48742,5,3598255,"5f500418133110165a1539a9","Chrome 89.0.4389.114","reminder",5,"SS3",20,"Screen 1","response_keyboard",1507.92000000001,3,1,1,0,"test_trial","SS3","pred","grocery store.png",1,3,1
"13/04/2021 16:04:34","13/04/2021 12:04:35",48742,5,3598255,"5f500418133110165a1539a9","Chrome 89.0.4389.114","reminder",5,"SS3",21,"Screen 1","response_keyboard",786.724999999919,2,1,1,0,"test_trial","SS3","pred","grocery store.png",2,2,1
"13/04/2021 16:04:36","13/04/2021 12:04:36",48742,5,3598255,"5f500418133110165a1539a9","Chrome 89.0.4389.114","reminder",5,"SS3",22,"Screen 1","response_keyboard",676.014999999999,4,1,1,0,"test_trial","SS3","pred","grocery store.png",3,4,1
"13/04/2021 16:04:36","13/04/2021 12:04:37",48742,5,3598255,"5f500418133110165a1539a9","Chrome 89.0.4389.114","reminder",5,"SS3",23,"Screen 1","response_keyboard",195.324999999677,2,1,1,0,"test_trial","SS3","pred","grocery store.png",4,2,1
"13/04/2021 16:04:37","13/04/2021 12:04:38",48742,5,3598255,"5f500418133110165a1539a9","Chrome 89.0.4389.114","reminder",5,"SS3",24,"Screen 1","response_keyboard",338.080000000453,1,1,1,0,"test_trial","SS3","pred","grocery store.png",5,1,1
"13/04/2021 16:04:38","13/04/2021 12:04:38",48742,5,3598255,"5f500418133110165a1539a9","Chrome 89.0.4389.114","reminder",5,"SS3",25,"Screen 1","response_keyboard",69.3550000005489,3,1,0,0,"test_trial","SS3","pred","grocery store.png",6,4,1
"13/04/2021 16:04:43","13/04/2021 12:04:44",48742,5,3598255,"5f500418133110165a1539a9","Chrome 89.0.4389.114","reminder",5,"SS3",28,"Screen 1","response_keyboard",896.804999999411,3,1,1,0,"test_trial","SS3","pred","grocery store.png",1,3,2
"13/04/2021 16:04:44","13/04/2021 12:04:45",48742,5,3598255,"5f500418133110165a1539a9","Chrome 89.0.4389.114","reminder",5,"SS3",29,"Screen 1","response_keyboard",315.085000000196,2,1,1,0,"test_trial","SS3","pred","grocery store.png",2,2,2
"13/04/2021 16:04:45","13/04/2021 12:04:46",48742,5,3598255,"5f500418133110165a1539a9","Chrome 89.0.4389.114","reminder",5,"SS3",30,"Screen 1","response_keyboard",449.16000000012,4,1,1,0,"test_trial","SS3","pred","grocery store.png",3,4,2
"13/04/2021 16:04:46","13/04/2021 12:04:47",48742,5,3598255,"5f500418133110165a1539a9","Chrome 89.0.4389.114","reminder",5,"SS3",31,"Screen 1","response_keyboard",208.634999999951,2,1,1,0,"test_trial","SS3","pred","grocery store.png",4,2,2
"13/04/2021 16:04:47","13/04/2021 12:04:47",48742,5,3598255,"5f500418133110165a1539a9","Chrome 89.0.4389.114","reminder",5,"SS3",32,"Screen 1","response_keyboard",160.015000000378,1,1,1,0,"test_trial","SS3","pred","grocery store.png",5,1,2
"13/04/2021 16:04:47","13/04/2021 12:04:48",48742,5,3598255,"5f500418133110165a1539a9","Chrome 89.0.4389.114","reminder",5,"SS3",33,"Screen 1","response_keyboard",31.5950000003795,4,1,1,0,"test_trial","SS3","pred","grocery store.png",6,4,2
"13/04/2021 16:05:25","13/04/2021 11:05:21",48742,5,3598257,"6065dd3e62bd91a2b471a822","Chrome 89.0.4389.114","reminder",5,"SS7",20,"Screen 1","response_keyboard",1042.679999955,3,1,1,0,"test_trial","SS7","pred","grocery store.png",1,3,1
"13/04/2021 16:05:25","13/04/2021 11:05:22",48742,5,3598257,"6065dd3e62bd91a2b471a822","Chrome 89.0.4389.114","reminder",5,"SS7",21,"Screen 1","response_keyboard",76.6100001055747,2,1,1,0,"test_trial","SS7","pred","grocery store.png",2,2,1
"13/04/2021 16:05:26","13/04/2021 11:05:22",48742,5,3598257,"6065dd3e62bd91a2b471a822","Chrome 89.0.4389.114","reminder",5,"SS7",22,"Screen 1","response_keyboard",171.060000080615,4,1,1,0,"test_trial","SS7","pred","grocery store.png",3,4,1
"13/04/2021 16:05:27","13/04/2021 11:05:23",48742,5,3598257,"6065dd3e62bd91a2b471a822","Chrome 89.0.4389.114","reminder",5,"SS7",23,"Screen 1","response_keyboard",590.054999804124,1,1,0,0,"test_trial","SS7","pred","grocery store.png",4,2,1
"13/04/2021 16:05:30","13/04/2021 11:05:26",48742,5,3598257,"6065dd3e62bd91a2b471a822","Chrome 89.0.4389.114","reminder",5,"SS7",24,"Screen 1","response_keyboard",2208.9749998413,1,1,1,0,"test_trial","SS7","pred","grocery store.png",5,1,1
"13/04/2021 16:05:31","13/04/2021 11:05:28",48742,5,3598257,"6065dd3e62bd91a2b471a822","Chrome 89.0.4389.114","reminder",5,"SS7",25,"Screen 1","response_keyboard",879.444999853149,4,1,1,0,"test_trial","SS7","pred","grocery store.png",6,4,1
"13/04/2021 16:05:37","13/04/2021 11:05:33",48742,5,3598257,"6065dd3e62bd91a2b471a822","Chrome 89.0.4389.114","reminder",5,"SS7",28,"Screen 1","response_keyboard",960.839999839664,3,1,1,0,"test_trial","SS7","pred","grocery store.png",1,3,2
"13/04/2021 16:05:38","13/04/2021 11:05:34",48742,5,3598257,"6065dd3e62bd91a2b471a822","Chrome 89.0.4389.114","reminder",5,"SS7",29,"Screen 1","response_keyboard",635.160000063479,2,1,1,0,"test_trial","SS7","pred","grocery store.png",2,2,2
"13/04/2021 16:05:39","13/04/2021 11:05:36",48742,5,3598257,"6065dd3e62bd91a2b471a822","Chrome 89.0.4389.114","reminder",5,"SS7",30,"Screen 1","response_keyboard",703.655000077561,4,1,1,0,"test_trial","SS7","pred","grocery store.png",3,4,2
"13/04/2021 16:05:41","13/04/2021 11:05:37",48742,5,3598257,"6065dd3e62bd91a2b471a822","Chrome 89.0.4389.114","reminder",5,"SS7",31,"Screen 1","response_keyboard",781.845000106841,2,1,1,0,"test_trial","SS7","pred","grocery store.png",4,2,2
"13/04/2021 16:05:42","13/04/2021 11:05:38",48742,5,3598257,"6065dd3e62bd91a2b471a822","Chrome 89.0.4389.114","reminder",5,"SS7",32,"Screen 1","response_keyboard",731.400000164285,1,1,1,0,"test_trial","SS7","pred","grocery store.png",5,1,2
"13/04/2021 16:05:43","13/04/2021 11:05:39",48742,5,3598257,"6065dd3e62bd91a2b471a822","Chrome 89.0.4389.114","reminder",5,"SS7",33,"Screen 1","response_keyboard",639.46000020951,4,1,1,0,"test_trial","SS7","pred","grocery store.png",6,4,2
"13/04/2021 18:38:36","13/04/2021 13:38:39",48742,5,3600318,"5d5f31230fc94a001c632b69","Firefox 87.0","reminder",5,"SS4",20,"Screen 1","response_keyboard",379,3,1,1,0,"test_trial","SS4","pred","pet store.png",1,3,1
"13/04/2021 18:38:37","13/04/2021 13:38:40",48742,5,3600318,"5d5f31230fc94a001c632b69","Firefox 87.0","reminder",5,"SS4",21,"Screen 1","response_keyboard",281,2,1,1,0,"test_trial","SS4","pred","pet store.png",2,2,1
"13/04/2021 18:38:38","13/04/2021 13:38:41",48742,5,3600318,"5d5f31230fc94a001c632b69","Firefox 87.0","reminder",5,"SS4",22,"Screen 1","response_keyboard",275,4,1,1,0,"test_trial","SS4","pred","pet store.png",3,4,1
"13/04/2021 18:38:39","13/04/2021 13:38:41",48742,5,3600318,"5d5f31230fc94a001c632b69","Firefox 87.0","reminder",5,"SS4",23,"Screen 1","response_keyboard",275,2,1,1,0,"test_trial","SS4","pred","pet store.png",4,2,1
"13/04/2021 18:38:39","13/04/2021 13:38:42",48742,5,3600318,"5d5f31230fc94a001c632b69","Firefox 87.0","reminder",5,"SS4",24,"Screen 1","response_keyboard",220,1,1,1,0,"test_trial","SS4","pred","pet store.png",5,1,1
"13/04/2021 18:38:40","13/04/2021 13:38:43",48742,5,3600318,"5d5f31230fc94a001c632b69","Firefox 87.0","reminder",5,"SS4",25,"Screen 1","response_keyboard",205,4,1,1,0,"test_trial","SS4","pred","pet store.png",6,4,1
"13/04/2021 18:38:45","13/04/2021 13:38:48",48742,5,3600318,"5d5f31230fc94a001c632b69","Firefox 87.0","reminder",5,"SS4",28,"Screen 1","response_keyboard",317,3,1,1,0,"test_trial","SS4","pred","pet store.png",1,3,2
"13/04/2021 18:38:46","13/04/2021 13:38:49",48742,5,3600318,"5d5f31230fc94a001c632b69","Firefox 87.0","reminder",5,"SS4",29,"Screen 1","response_keyboard",112,2,1,1,0,"test_trial","SS4","pred","pet store.png",2,2,2
"13/04/2021 18:38:47","13/04/2021 13:38:49",48742,5,3600318,"5d5f31230fc94a001c632b69","Firefox 87.0","reminder",5,"SS4",30,"Screen 1","response_keyboard",129,4,1,1,0,"test_trial","SS4","pred","pet store.png",3,4,2
"13/04/2021 18:38:47","13/04/2021 13:38:50",48742,5,3600318,"5d5f31230fc94a001c632b69","Firefox 87.0","reminder",5,"SS4",31,"Screen 1","response_keyboard",87,2,1,1,0,"test_trial","SS4","pred","pet store.png",4,2,2
"13/04/2021 18:38:48","13/04/2021 13:38:50",48742,5,3600318,"5d5f31230fc94a001c632b69","Firefox 87.0","reminder",5,"SS4",32,"Screen 1","response_keyboard",89,1,1,1,0,"test_trial","SS4","pred","pet store.png",5,1,2
"13/04/2021 18:38:48","13/04/2021 13:38:51",48742,5,3600318,"5d5f31230fc94a001c632b69","Firefox 87.0","reminder",5,"SS4",33,"Screen 1","response_keyboard",120,4,1,1,0,"test_trial","SS4","pred","pet store.png",6,4,2
"13/04/2021 18:39:42","13/04/2021 13:39:43",48742,5,3600326,"5e9e19d808b9931ef37373c6","Chrome 89.0.4389.114","reminder",5,"SS3",20,"Screen 1","response_keyboard",721.524999942631,3,1,1,0,"test_trial","SS3","pred","grocery store.png",1,3,1
"13/04/2021 18:39:43","13/04/2021 13:39:44",48742,5,3600326,"5e9e19d808b9931ef37373c6","Chrome 89.0.4389.114","reminder",5,"SS3",21,"Screen 1","response_keyboard",165.109999943525,2,1,1,0,"test_trial","SS3","pred","grocery store.png",2,2,1
"13/04/2021 18:39:44","13/04/2021 13:39:45",48742,5,3600326,"5e9e19d808b9931ef37373c6","Chrome 89.0.4389.114","reminder",5,"SS3",22,"Screen 1","response_keyboard",217.264999984764,4,1,1,0,"test_trial","SS3","pred","grocery store.png",3,4,1
"13/04/2021 18:39:45","13/04/2021 13:39:46",48742,5,3600326,"5e9e19d808b9931ef37373c6","Chrome 89.0.4389.114","reminder",5,"SS3",23,"Screen 1","response_keyboard",164.819999947213,2,1,1,0,"test_trial","SS3","pred","grocery store.png",4,2,1
"13/04/2021 18:39:46","13/04/2021 13:39:46",48742,5,3600326,"5e9e19d808b9931ef37373c6","Chrome 89.0.4389.114","reminder",5,"SS3",24,"Screen 1","response_keyboard",50.514999893494,1,1,1,0,"test_trial","SS3","pred","grocery store.png",5,1,1
"13/04/2021 18:39:46","13/04/2021 13:39:47",48742,5,3600326,"5e9e19d808b9931ef37373c6","Chrome 89.0.4389.114","reminder",5,"SS3",25,"Screen 1","response_keyboard",59.1649999842048,4,1,1,0,"test_trial","SS3","pred","grocery store.png",6,4,1
"13/04/2021 18:39:52","13/04/2021 13:39:53",48742,5,3600326,"5e9e19d808b9931ef37373c6","Chrome 89.0.4389.114","reminder",5,"SS3",28,"Screen 1","response_keyboard",597.055000020191,3,1,1,0,"test_trial","SS3","pred","grocery store.png",1,3,2
"13/04/2021 18:39:52","13/04/2021 13:39:53",48742,5,3600326,"5e9e19d808b9931ef37373c6","Chrome 89.0.4389.114","reminder",5,"SS3",29,"Screen 1","response_keyboard",10.2000000188127,2,1,1,0,"test_trial","SS3","pred","grocery store.png",2,2,2
"13/04/2021 18:39:53","13/04/2021 13:39:54",48742,5,3600326,"5e9e19d808b9931ef37373c6","Chrome 89.0.4389.114","reminder",5,"SS3",30,"Screen 1","response_keyboard",155.710000079125,4,1,1,0,"test_trial","SS3","pred","grocery store.png",3,4,2
"13/04/2021 18:39:54","13/04/2021 13:39:55",48742,5,3600326,"5e9e19d808b9931ef37373c6","Chrome 89.0.4389.114","reminder",5,"SS3",31,"Screen 1","response_keyboard",10.7599999755621,2,1,1,0,"test_trial","SS3","pred","grocery store.png",4,2,2
"13/04/2021 18:39:54","13/04/2021 13:39:55",48742,5,3600326,"5e9e19d808b9931ef37373c6","Chrome 89.0.4389.114","reminder",5,"SS3",32,"Screen 1","response_keyboard",100.244999979623,1,1,1,0,"test_trial","SS3","pred","grocery store.png",5,1,2
"13/04/2021 18:39:56","13/04/2021 13:39:56",48742,5,3600326,"5e9e19d808b9931ef37373c6","Chrome 89.0.4389.114","reminder",5,"SS3",33,"Screen 1","response_keyboard",773.870000033639,4,1,1,0,"test_trial","SS3","pred","grocery store.png",6,4,2
"13/04/2021 18:40:07","13/04/2021 14:40:08",48742,5,3600319,"604a1b61bc2fc51feb3a6203","Chrome 89.0.4389.114","reminder",5,"SS6",20,"Screen 1","response_keyboard",618.224999998347,1,1,1,0,"test_trial","SS6","pred","pet store.png",1,1,1
"13/04/2021 18:40:08","13/04/2021 14:40:09",48742,5,3600319,"604a1b61bc2fc51feb3a6203","Chrome 89.0.4389.114","reminder",5,"SS6",21,"Screen 1","response_keyboard",335.814999998547,4,1,1,0,"test_trial","SS6","pred","pet store.png",2,4,1
"13/04/2021 18:40:09","13/04/2021 14:40:10",48742,5,3600319,"604a1b61bc2fc51feb3a6203","Chrome 89.0.4389.114","reminder",5,"SS6",22,"Screen 1","response_keyboard",412.165000001551,3,1,1,0,"test_trial","SS6","pred","pet store.png",3,3,1
"13/04/2021 18:40:10","13/04/2021 14:40:11",48742,5,3600319,"604a1b61bc2fc51feb3a6203","Chrome 89.0.4389.114","reminder",5,"SS6",23,"Screen 1","response_keyboard",313.340000007884,4,1,1,0,"test_trial","SS6","pred","pet store.png",4,4,1
"13/04/2021 18:40:11","13/04/2021 14:40:12",48742,5,3600319,"604a1b61bc2fc51feb3a6203","Chrome 89.0.4389.114","reminder",5,"SS6",24,"Screen 1","response_keyboard",455.830000006245,2,1,1,0,"test_trial","SS6","pred","pet store.png",5,2,1
"13/04/2021 18:40:12","13/04/2021 14:40:13",48742,5,3600319,"604a1b61bc2fc51feb3a6203","Chrome 89.0.4389.114","reminder",5,"SS6",25,"Screen 1","response_keyboard",576.684999992722,3,1,1,0,"test_trial","SS6","pred","pet store.png",6,3,1
"13/04/2021 18:40:18","13/04/2021 14:40:18",48742,5,3600319,"604a1b61bc2fc51feb3a6203","Chrome 89.0.4389.114","reminder",5,"SS6",28,"Screen 1","response_keyboard",763.679999989108,1,1,1,0,"test_trial","SS6","pred","pet store.png",1,1,2
"13/04/2021 18:40:19","13/04/2021 14:40:19",48742,5,3600319,"604a1b61bc2fc51feb3a6203","Chrome 89.0.4389.114","reminder",5,"SS6",29,"Screen 1","response_keyboard",337.455000000773,4,1,1,0,"test_trial","SS6","pred","pet store.png",2,4,2
"13/04/2021 18:40:20","13/04/2021 14:40:20",48742,5,3600319,"604a1b61bc2fc51feb3a6203","Chrome 89.0.4389.114","reminder",5,"SS6",30,"Screen 1","response_keyboard",322.929999994813,3,1,1,0,"test_trial","SS6","pred","pet store.png",3,3,2
"13/04/2021 18:40:21","13/04/2021 14:40:21",48742,5,3600319,"604a1b61bc2fc51feb3a6203","Chrome 89.0.4389.114","reminder",5,"SS6",31,"Screen 1","response_keyboard",306.064999997034,4,1,1,0,"test_trial","SS6","pred","pet store.png",4,4,2
"13/04/2021 18:40:22","13/04/2021 14:40:22",48742,5,3600319,"604a1b61bc2fc51feb3a6203","Chrome 89.0.4389.114","reminder",5,"SS6",32,"Screen 1","response_keyboard",258.034999991651,2,1,1,0,"test_trial","SS6","pred","pet store.png",5,2,2
"13/04/2021 18:40:22","13/04/2021 14:40:23",48742,5,3600319,"604a1b61bc2fc51feb3a6203","Chrome 89.0.4389.114","reminder",5,"SS6",33,"Screen 1","response_keyboard",226.829999999609,3,1,1,0,"test_trial","SS6","pred","pet store.png",6,3,2
"13/04/2021 18:42:43","13/04/2021 11:42:44",48742,5,3600335,"5f6e7ce18d7ea83c39acc2d5","Chrome 89.0.4389.114","reminder",5,"SS5",20,"Screen 1","response_keyboard",488.290000008419,1,1,1,0,"test_trial","SS5","pred","grocery store.png",1,1,1
"13/04/2021 18:42:44","13/04/2021 11:42:45",48742,5,3600335,"5f6e7ce18d7ea83c39acc2d5","Chrome 89.0.4389.114","reminder",5,"SS5",21,"Screen 1","response_keyboard",306.784999964293,4,1,1,0,"test_trial","SS5","pred","grocery store.png",2,4,1
"13/04/2021 18:42:45","13/04/2021 11:42:45",48742,5,3600335,"5f6e7ce18d7ea83c39acc2d5","Chrome 89.0.4389.114","reminder",5,"SS5",22,"Screen 1","response_keyboard",237.260000023525,3,1,1,0,"test_trial","SS5","pred","grocery store.png",3,3,1
"13/04/2021 18:42:46","13/04/2021 11:42:46",48742,5,3600335,"5f6e7ce18d7ea83c39acc2d5","Chrome 89.0.4389.114","reminder",5,"SS5",23,"Screen 1","response_keyboard",252.254999999423,4,1,1,0,"test_trial","SS5","pred","grocery store.png",4,4,1
"13/04/2021 18:42:47","13/04/2021 11:42:47",48742,5,3600335,"5f6e7ce18d7ea83c39acc2d5","Chrome 89.0.4389.114","reminder",5,"SS5",24,"Screen 1","response_keyboard",244.805000023916,2,1,1,0,"test_trial","SS5","pred","grocery store.png",5,2,1
"13/04/2021 18:42:47","13/04/2021 11:42:48",48742,5,3600335,"5f6e7ce18d7ea83c39acc2d5","Chrome 89.0.4389.114","reminder",5,"SS5",25,"Screen 1","response_keyboard",211.840000003576,3,1,1,0,"test_trial","SS5","pred","grocery store.png",6,3,1
"13/04/2021 18:42:53","13/04/2021 11:42:53",48742,5,3600335,"5f6e7ce18d7ea83c39acc2d5","Chrome 89.0.4389.114","reminder",5,"SS5",28,"Screen 1","response_keyboard",695.160000002943,1,1,1,0,"test_trial","SS5","pred","grocery store.png",1,1,2
"13/04/2021 18:42:54","13/04/2021 11:42:54",48742,5,3600335,"5f6e7ce18d7ea83c39acc2d5","Chrome 89.0.4389.114","reminder",5,"SS5",29,"Screen 1","response_keyboard",283.470000023954,4,1,1,0,"test_trial","SS5","pred","grocery store.png",2,4,2
"13/04/2021 18:42:54","13/04/2021 11:42:55",48742,5,3600335,"5f6e7ce18d7ea83c39acc2d5","Chrome 89.0.4389.114","reminder",5,"SS5",30,"Screen 1","response_keyboard",262.600000016391,3,1,1,0,"test_trial","SS5","pred","grocery store.png",3,3,2
"13/04/2021 18:42:55","13/04/2021 11:42:56",48742,5,3600335,"5f6e7ce18d7ea83c39acc2d5","Chrome 89.0.4389.114","reminder",5,"SS5",31,"Screen 1","response_keyboard",234.460000006948,4,1,1,0,"test_trial","SS5","pred","grocery store.png",4,4,2
"13/04/2021 18:42:56","13/04/2021 11:42:56",48742,5,3600335,"5f6e7ce18d7ea83c39acc2d5","Chrome 89.0.4389.114","reminder",5,"SS5",32,"Screen 1","response_keyboard",259.819999977481,2,1,1,0,"test_trial","SS5","pred","grocery store.png",5,2,2
"13/04/2021 18:42:57","13/04/2021 11:42:57",48742,5,3600335,"5f6e7ce18d7ea83c39acc2d5","Chrome 89.0.4389.114","reminder",5,"SS5",33,"Screen 1","response_keyboard",264.304999960586,3,1,1,0,"test_trial","SS5","pred","grocery store.png",6,3,2
"13/04/2021 18:45:30","13/04/2021 14:45:29",48742,5,3600368,"5e815773285d3883ba2fbbcf","Chrome 89.0.4389.114","reminder",5,"SS4",20,"Screen 1","response_keyboard",1094.59000010975,3,1,1,0,"test_trial","SS4","pred","pet store.png",1,3,1
"13/04/2021 18:45:31","13/04/2021 14:45:31",48742,5,3600368,"5e815773285d3883ba2fbbcf","Chrome 89.0.4389.114","reminder",5,"SS4",21,"Screen 1","response_keyboard",759.659999981523,2,1,1,0,"test_trial","SS4","pred","pet store.png",2,2,1
"13/04/2021 18:45:32","13/04/2021 14:45:31",48742,5,3600368,"5e815773285d3883ba2fbbcf","Chrome 89.0.4389.114","reminder",5,"SS4",22,"Screen 1","response_keyboard",384.030000073835,4,1,1,0,"test_trial","SS4","pred","pet store.png",3,4,1
"13/04/2021 18:45:33","13/04/2021 14:45:33",48742,5,3600368,"5e815773285d3883ba2fbbcf","Chrome 89.0.4389.114","reminder",5,"SS4",23,"Screen 1","response_keyboard",550.364999799058,2,1,1,0,"test_trial","SS4","pred","pet store.png",4,2,1
"13/04/2021 18:45:34","13/04/2021 14:45:33",48742,5,3600368,"5e815773285d3883ba2fbbcf","Chrome 89.0.4389.114","reminder",5,"SS4",24,"Screen 1","response_keyboard",327.189999865368,1,1,1,0,"test_trial","SS4","pred","pet store.png",5,1,1
"13/04/2021 18:45:34","13/04/2021 14:45:34",48742,5,3600368,"5e815773285d3883ba2fbbcf","Chrome 89.0.4389.114","reminder",5,"SS4",25,"Screen 1","response_keyboard",280.625000130385,4,1,1,0,"test_trial","SS4","pred","pet store.png",6,4,1
"13/04/2021 18:45:40","13/04/2021 14:45:39",48742,5,3600368,"5e815773285d3883ba2fbbcf","Chrome 89.0.4389.114","reminder",5,"SS4",28,"Screen 1","response_keyboard",508.334999904037,3,1,1,0,"test_trial","SS4","pred","pet store.png",1,3,2
"13/04/2021 18:45:41","13/04/2021 14:45:40",48742,5,3600368,"5e815773285d3883ba2fbbcf","Chrome 89.0.4389.114","reminder",5,"SS4",29,"Screen 1","response_keyboard",275.125000160187,2,1,1,0,"test_trial","SS4","pred","pet store.png",2,2,2
"13/04/2021 18:45:41","13/04/2021 14:45:41",48742,5,3600368,"5e815773285d3883ba2fbbcf","Chrome 89.0.4389.114","reminder",5,"SS4",30,"Screen 1","response_keyboard",296.360000036657,4,1,1,0,"test_trial","SS4","pred","pet store.png",3,4,2
"13/04/2021 18:45:42","13/04/2021 14:45:42",48742,5,3600368,"5e815773285d3883ba2fbbcf","Chrome 89.0.4389.114","reminder",5,"SS4",31,"Screen 1","response_keyboard",468.445000005886,2,1,1,0,"test_trial","SS4","pred","pet store.png",4,2,2
"13/04/2021 18:45:43","13/04/2021 14:45:43",48742,5,3600368,"5e815773285d3883ba2fbbcf","Chrome 89.0.4389.114","reminder",5,"SS4",32,"Screen 1","response_keyboard",239.15999988094,1,1,1,0,"test_trial","SS4","pred","pet store.png",5,1,2
"13/04/2021 18:45:44","13/04/2021 14:45:43",48742,5,3600368,"5e815773285d3883ba2fbbcf","Chrome 89.0.4389.114","reminder",5,"SS4",33,"Screen 1","response_keyboard",143.875000067055,4,1,1,0,"test_trial","SS4","pred","pet store.png",6,4,2
"13/04/2021 18:45:31","13/04/2021 14:45:29",48742,5,3600351,"5fda1e659df7fa12561ec08a","Chrome 89.0.4389.114","reminder",5,"SS4",20,"Screen 1","response_keyboard",805.215000000317,3,1,1,0,"test_trial","SS4","pred","pet store.png",1,3,1
"13/04/2021 18:45:32","13/04/2021 14:45:30",48742,5,3600351,"5fda1e659df7fa12561ec08a","Chrome 89.0.4389.114","reminder",5,"SS4",21,"Screen 1","response_keyboard",523.62500000163,2,1,1,0,"test_trial","SS4","pred","pet store.png",2,2,1
"13/04/2021 18:45:33","13/04/2021 14:45:31",48742,5,3600351,"5fda1e659df7fa12561ec08a","Chrome 89.0.4389.114","reminder",5,"SS4",22,"Screen 1","response_keyboard",270.915000000969,4,1,1,0,"test_trial","SS4","pred","pet store.png",3,4,1
"13/04/2021 18:45:34","13/04/2021 14:45:32",48742,5,3600351,"5fda1e659df7fa12561ec08a","Chrome 89.0.4389.114","reminder",5,"SS4",23,"Screen 1","response_keyboard",314.470000001165,1,1,0,0,"test_trial","SS4","pred","pet store.png",4,2,1
"13/04/2021 18:45:35","13/04/2021 14:45:33",48742,5,3600351,"5fda1e659df7fa12561ec08a","Chrome 89.0.4389.114","reminder",5,"SS4",24,"Screen 1","response_keyboard",478.019999998651,2,1,0,0,"test_trial","SS4","pred","pet store.png",5,1,1
"13/04/2021 18:45:36","13/04/2021 14:45:34",48742,5,3600351,"5fda1e659df7fa12561ec08a","Chrome 89.0.4389.114","reminder",5,"SS4",25,"Screen 1","response_keyboard",745.240000000194,4,1,1,0,"test_trial","SS4","pred","pet store.png",6,4,1
"13/04/2021 18:45:43","13/04/2021 14:45:40",48742,5,3600351,"5fda1e659df7fa12561ec08a","Chrome 89.0.4389.114","reminder",5,"SS4",28,"Screen 1","response_keyboard",1348.9350000018,3,1,1,0,"test_trial","SS4","pred","pet store.png",1,3,2
"13/04/2021 18:45:43","13/04/2021 14:45:41",48742,5,3600351,"5fda1e659df7fa12561ec08a","Chrome 89.0.4389.114","reminder",5,"SS4",29,"Screen 1","response_keyboard",325.150000000576,2,1,1,0,"test_trial","SS4","pred","pet store.png",2,2,2
"13/04/2021 18:45:44","13/04/2021 14:45:42",48742,5,3600351,"5fda1e659df7fa12561ec08a","Chrome 89.0.4389.114","reminder",5,"SS4",30,"Screen 1","response_keyboard",34.7900000015215,4,1,1,0,"test_trial","SS4","pred","pet store.png",3,4,2
"13/04/2021 18:45:45","13/04/2021 14:45:43",48742,5,3600351,"5fda1e659df7fa12561ec08a","Chrome 89.0.4389.114","reminder",5,"SS4",31,"Screen 1","response_keyboard",199.649999998655,2,1,1,0,"test_trial","SS4","pred","pet store.png",4,2,2
"13/04/2021 18:45:46","13/04/2021 14:45:43",48742,5,3600351,"5fda1e659df7fa12561ec08a","Chrome 89.0.4389.114","reminder",5,"SS4",32,"Screen 1","response_keyboard",84.2849999971804,1,1,1,0,"test_trial","SS4","pred","pet store.png",5,1,2
"13/04/2021 18:45:46","13/04/2021 14:45:44",48742,5,3600351,"5fda1e659df7fa12561ec08a","Chrome 89.0.4389.114","reminder",5,"SS4",33,"Screen 1","response_keyboard",36.0900000014226,4,1,1,0,"test_trial","SS4","pred","pet store.png",6,4,2
"13/04/2021 18:47:51","13/04/2021 13:47:52",48742,5,3600356,"5f48734f9e842533dfc67249","Chrome 89.0.4389.114","reminder",5,"SS7",20,"Screen 1","response_keyboard",286.699999996927,3,1,1,0,"test_trial","SS7","pred","grocery store.png",1,3,1
"13/04/2021 18:47:52","13/04/2021 13:47:53",48742,5,3600356,"5f48734f9e842533dfc67249","Chrome 89.0.4389.114","reminder",5,"SS7",21,"Screen 1","response_keyboard",271.539999986999,2,1,1,0,"test_trial","SS7","pred","grocery store.png",2,2,1
"13/04/2021 18:47:53","13/04/2021 13:47:54",48742,5,3600356,"5f48734f9e842533dfc67249","Chrome 89.0.4389.114","reminder",5,"SS7",22,"Screen 1","response_keyboard",405.689999985043,4,1,1,0,"test_trial","SS7","pred","grocery store.png",3,4,1
"13/04/2021 18:47:54","13/04/2021 13:47:55",48742,5,3600356,"5f48734f9e842533dfc67249","Chrome 89.0.4389.114","reminder",5,"SS7",23,"Screen 1","response_keyboard",262.55000004312,2,1,1,0,"test_trial","SS7","pred","grocery store.png",4,2,1
"13/04/2021 18:47:54","13/04/2021 13:47:55",48742,5,3600356,"5f48734f9e842533dfc67249","Chrome 89.0.4389.114","reminder",5,"SS7",24,"Screen 1","response_keyboard",150.525000004563,1,1,1,0,"test_trial","SS7","pred","grocery store.png",5,1,1
"13/04/2021 18:47:55","13/04/2021 13:47:56",48742,5,3600356,"5f48734f9e842533dfc67249","Chrome 89.0.4389.114","reminder",5,"SS7",25,"Screen 1","response_keyboard",59.8349999636412,4,1,1,0,"test_trial","SS7","pred","grocery store.png",6,4,1
"13/04/2021 18:48:00","13/04/2021 13:48:01",48742,5,3600356,"5f48734f9e842533dfc67249","Chrome 89.0.4389.114","reminder",5,"SS7",28,"Screen 1","response_keyboard",396.089999994729,3,1,1,0,"test_trial","SS7","pred","grocery store.png",1,3,2
"13/04/2021 18:48:01","13/04/2021 13:48:02",48742,5,3600356,"5f48734f9e842533dfc67249","Chrome 89.0.4389.114","reminder",5,"SS7",29,"Screen 1","response_keyboard",252.119999960996,2,1,1,0,"test_trial","SS7","pred","grocery store.png",2,2,2
"13/04/2021 18:48:02","13/04/2021 13:48:02",48742,5,3600356,"5f48734f9e842533dfc67249","Chrome 89.0.4389.114","reminder",5,"SS7",30,"Screen 1","response_keyboard",165.069999988191,4,1,1,0,"test_trial","SS7","pred","grocery store.png",3,4,2
"13/04/2021 18:48:02","13/04/2021 13:48:03",48742,5,3600356,"5f48734f9e842533dfc67249","Chrome 89.0.4389.114","reminder",5,"SS7",31,"Screen 1","response_keyboard",175.249999971129,2,1,1,0,"test_trial","SS7","pred","grocery store.png",4,2,2
"13/04/2021 18:48:03","13/04/2021 13:48:04",48742,5,3600356,"5f48734f9e842533dfc67249","Chrome 89.0.4389.114","reminder",5,"SS7",32,"Screen 1","response_keyboard",108.539999986533,1,1,1,0,"test_trial","SS7","pred","grocery store.png",5,1,2
"13/04/2021 18:48:04","13/04/2021 13:48:04",48742,5,3600356,"5f48734f9e842533dfc67249","Chrome 89.0.4389.114","reminder",5,"SS7",33,"Screen 1","response_keyboard",58.904999983497,4,1,1,0,"test_trial","SS7","pred","grocery store.png",6,4,2
"13/04/2021 18:50:55","13/04/2021 13:50:54",48742,5,3600358,"60284ba64dc0f46ed3e37bb6","Chrome 88.0.4324.192","reminder",5,"SS6",20,"Screen 1","response_keyboard",710.999999893829,1,1,1,0,"test_trial","SS6","pred","pet store.png",1,1,1
"13/04/2021 18:50:56","13/04/2021 13:50:56",48742,5,3600358,"60284ba64dc0f46ed3e37bb6","Chrome 88.0.4324.192","reminder",5,"SS6",21,"Screen 1","response_keyboard",662.830000044778,4,1,1,0,"test_trial","SS6","pred","pet store.png",2,4,1
"13/04/2021 18:50:57","13/04/2021 13:50:57",48742,5,3600358,"60284ba64dc0f46ed3e37bb6","Chrome 88.0.4324.192","reminder",5,"SS6",22,"Screen 1","response_keyboard",471.455000108108,3,1,1,0,"test_trial","SS6","pred","pet store.png",3,3,1
"13/04/2021 18:50:58","13/04/2021 13:50:58",48742,5,3600358,"60284ba64dc0f46ed3e37bb6","Chrome 88.0.4324.192","reminder",5,"SS6",23,"Screen 1","response_keyboard",474.625000031665,4,1,1,0,"test_trial","SS6","pred","pet store.png",4,4,1
"13/04/2021 18:50:59","13/04/2021 13:50:59",48742,5,3600358,"60284ba64dc0f46ed3e37bb6","Chrome 88.0.4324.192","reminder",5,"SS6",24,"Screen 1","response_keyboard",488.790000090376,2,1,1,0,"test_trial","SS6","pred","pet store.png",5,2,1
"13/04/2021 18:51:00","13/04/2021 13:51:00",48742,5,3600358,"60284ba64dc0f46ed3e37bb6","Chrome 88.0.4324.192","reminder",5,"SS6",25,"Screen 1","response_keyboard",420.704999938607,3,1,1,0,"test_trial","SS6","pred","pet store.png",6,3,1
"13/04/2021 18:51:05","13/04/2021 13:51:05",48742,5,3600358,"60284ba64dc0f46ed3e37bb6","Chrome 88.0.4324.192","reminder",5,"SS6",28,"Screen 1","response_keyboard",640.915000112727,1,1,1,0,"test_trial","SS6","pred","pet store.png",1,1,2
"13/04/2021 18:51:06","13/04/2021 13:51:06",48742,5,3600358,"60284ba64dc0f46ed3e37bb6","Chrome 88.0.4324.192","reminder",5,"SS6",29,"Screen 1","response_keyboard",503.87499993667,4,1,1,0,"test_trial","SS6","pred","pet store.png",2,4,2
"13/04/2021 18:51:07","13/04/2021 13:51:07",48742,5,3600358,"60284ba64dc0f46ed3e37bb6","Chrome 88.0.4324.192","reminder",5,"SS6",30,"Screen 1","response_keyboard",462.455000029877,3,1,1,0,"test_trial","SS6","pred","pet store.png",3,3,2
"13/04/2021 18:51:08","13/04/2021 13:51:08",48742,5,3600358,"60284ba64dc0f46ed3e37bb6","Chrome 88.0.4324.192","reminder",5,"SS6",31,"Screen 1","response_keyboard",428.54500003159,4,1,1,0,"test_trial","SS6","pred","pet store.png",4,4,2
"13/04/2021 18:51:09","13/04/2021 13:51:09",48742,5,3600358,"60284ba64dc0f46ed3e37bb6","Chrome 88.0.4324.192","reminder",5,"SS6",32,"Screen 1","response_keyboard",487.660000100732,2,1,1,0,"test_trial","SS6","pred","pet store.png",5,2,2
"13/04/2021 18:51:10","13/04/2021 13:51:10",48742,5,3600358,"60284ba64dc0f46ed3e37bb6","Chrome 88.0.4324.192","reminder",5,"SS6",33,"Screen 1","response_keyboard",434.500000206754,3,1,1,0,"test_trial","SS6","pred","pet store.png",6,3,2
"13/04/2021 19:16:54","13/04/2021 14:16:54",48742,5,3600546,"6057983f31d70d1bd35fb9f1","Chrome 89.0.4389.114","reminder",5,"SS8",20,"Screen 1","response_keyboard",986.045000026934,3,1,1,0,"test_trial","SS8","pred","pet store.png",1,3,1
"13/04/2021 19:16:56","13/04/2021 14:16:55",48742,5,3600546,"6057983f31d70d1bd35fb9f1","Chrome 89.0.4389.114","reminder",5,"SS8",21,"Screen 1","response_keyboard",580.810000072233,2,1,1,0,"test_trial","SS8","pred","pet store.png",2,2,1
"13/04/2021 19:16:57","13/04/2021 14:16:56",48742,5,3600546,"6057983f31d70d1bd35fb9f1","Chrome 89.0.4389.114","reminder",5,"SS8",22,"Screen 1","response_keyboard",539.820000063628,4,1,1,0,"test_trial","SS8","pred","pet store.png",3,4,1
"13/04/2021 19:16:58","13/04/2021 14:16:57",48742,5,3600546,"6057983f31d70d1bd35fb9f1","Chrome 89.0.4389.114","reminder",5,"SS8",23,"Screen 1","response_keyboard",466.710000066087,2,1,1,0,"test_trial","SS8","pred","pet store.png",4,2,1
"13/04/2021 19:16:59","13/04/2021 14:16:59",48742,5,3600546,"6057983f31d70d1bd35fb9f1","Chrome 89.0.4389.114","reminder",5,"SS8",24,"Screen 1","response_keyboard",536.695000017062,1,1,1,0,"test_trial","SS8","pred","pet store.png",5,1,1
"13/04/2021 19:17:00","13/04/2021 14:16:59",48742,5,3600546,"6057983f31d70d1bd35fb9f1","Chrome 89.0.4389.114","reminder",5,"SS8",25,"Screen 1","response_keyboard",408.620000001974,4,1,1,0,"test_trial","SS8","pred","pet store.png",6,4,1
"13/04/2021 19:17:05","13/04/2021 14:17:05",48742,5,3600546,"6057983f31d70d1bd35fb9f1","Chrome 89.0.4389.114","reminder",5,"SS8",28,"Screen 1","response_keyboard",1069.6300000418,3,1,1,0,"test_trial","SS8","pred","pet store.png",1,3,2
"13/04/2021 19:17:06","13/04/2021 14:17:06",48742,5,3600546,"6057983f31d70d1bd35fb9f1","Chrome 89.0.4389.114","reminder",5,"SS8",29,"Screen 1","response_keyboard",463.525000028312,2,1,1,0,"test_trial","SS8","pred","pet store.png",2,2,2
"13/04/2021 19:17:07","13/04/2021 14:17:07",48742,5,3600546,"6057983f31d70d1bd35fb9f1","Chrome 89.0.4389.114","reminder",5,"SS8",30,"Screen 1","response_keyboard",443.450000020675,4,1,1,0,"test_trial","SS8","pred","pet store.png",3,4,2
"13/04/2021 19:17:08","13/04/2021 14:17:08",48742,5,3600546,"6057983f31d70d1bd35fb9f1","Chrome 89.0.4389.114","reminder",5,"SS8",31,"Screen 1","response_keyboard",364.629999967292,2,1,1,0,"test_trial","SS8","pred","pet store.png",4,2,2
"13/04/2021 19:17:09","13/04/2021 14:17:09",48742,5,3600546,"6057983f31d70d1bd35fb9f1","Chrome 89.0.4389.114","reminder",5,"SS8",32,"Screen 1","response_keyboard",378.340000053868,1,1,1,0,"test_trial","SS8","pred","pet store.png",5,1,2
"13/04/2021 19:17:10","13/04/2021 14:17:10",48742,5,3600546,"6057983f31d70d1bd35fb9f1","Chrome 89.0.4389.114","reminder",5,"SS8",33,"Screen 1","response_keyboard",344.350000028498,4,1,1,0,"test_trial","SS8","pred","pet store.png",6,4,2
"13/04/2021 19:20:03","13/04/2021 15:20:03",48742,5,3600503,"5c0990b854deae0001ac693c","Chrome 89.0.4389.114","reminder",5,"SS7",20,"Screen 1","response_keyboard",1225.97500006668,3,1,1,0,"test_trial","SS7","pred","grocery store.png",1,3,1
"13/04/2021 19:20:04","13/04/2021 15:20:04",48742,5,3600503,"5c0990b854deae0001ac693c","Chrome 89.0.4389.114","reminder",5,"SS7",21,"Screen 1","response_keyboard",285.404999973252,2,1,1,0,"test_trial","SS7","pred","grocery store.png",2,2,1
"13/04/2021 19:20:05","13/04/2021 15:20:04",48742,5,3600503,"5c0990b854deae0001ac693c","Chrome 89.0.4389.114","reminder",5,"SS7",22,"Screen 1","response_keyboard",10.3149999631569,4,1,1,0,"test_trial","SS7","pred","grocery store.png",3,4,1
"13/04/2021 19:20:06","13/04/2021 15:20:06",48742,5,3600503,"5c0990b854deae0001ac693c","Chrome 89.0.4389.114","reminder",5,"SS7",23,"Screen 1","response_keyboard",962.635000003502,2,1,1,0,"test_trial","SS7","pred","grocery store.png",4,2,1
"13/04/2021 19:20:07","13/04/2021 15:20:07",48742,5,3600503,"5c0990b854deae0001ac693c","Chrome 89.0.4389.114","reminder",5,"SS7",24,"Screen 1","response_keyboard",360.510000027716,1,1,1,0,"test_trial","SS7","pred","grocery store.png",5,1,1
"13/04/2021 19:20:08","13/04/2021 15:20:07",48742,5,3600503,"5c0990b854deae0001ac693c","Chrome 89.0.4389.114","reminder",5,"SS7",25,"Screen 1","response_keyboard",3.0749998986721,4,1,1,0,"test_trial","SS7","pred","grocery store.png",6,4,1
"13/04/2021 19:20:13","13/04/2021 15:20:13",48742,5,3600503,"5c0990b854deae0001ac693c","Chrome 89.0.4389.114","reminder",5,"SS7",28,"Screen 1","response_keyboard",1061.75999995321,3,1,1,0,"test_trial","SS7","pred","grocery store.png",1,3,2
"13/04/2021 19:20:14","13/04/2021 15:20:13",48742,5,3600503,"5c0990b854deae0001ac693c","Chrome 89.0.4389.114","reminder",5,"SS7",29,"Screen 1","response_keyboard",34.1450000414625,2,1,1,0,"test_trial","SS7","pred","grocery store.png",2,2,2
"13/04/2021 19:20:15","13/04/2021 15:20:14",48742,5,3600503,"5c0990b854deae0001ac693c","Chrome 89.0.4389.114","reminder",5,"SS7",30,"Screen 1","response_keyboard",105.674999998882,4,1,1,0,"test_trial","SS7","pred","grocery store.png",3,4,2
"13/04/2021 19:20:16","13/04/2021 15:20:15",48742,5,3600503,"5c0990b854deae0001ac693c","Chrome 89.0.4389.114","reminder",5,"SS7",31,"Screen 1","response_keyboard",592.160000000149,2,1,1,0,"test_trial","SS7","pred","grocery store.png",4,2,2
"13/04/2021 19:20:16","13/04/2021 15:20:16",48742,5,3600503,"5c0990b854deae0001ac693c","Chrome 89.0.4389.114","reminder",5,"SS7",32,"Screen 1","response_keyboard",97.1549999667332,1,1,1,0,"test_trial","SS7","pred","grocery store.png",5,1,2
"13/04/2021 19:20:17","13/04/2021 15:20:17",48742,5,3600503,"5c0990b854deae0001ac693c","Chrome 89.0.4389.114","reminder",5,"SS7",33,"Screen 1","response_keyboard",101.359999971464,4,1,1,0,"test_trial","SS7","pred","grocery store.png",6,4,2
"13/04/2021 19:25:27","13/04/2021 15:25:27",48742,5,3600543,"5e63e793e50a6316a75213c4","Chrome 89.0.4389.114","reminder",5,"SS1",20,"Screen 1","response_keyboard",589.159999974072,1,1,1,0,"test_trial","SS1","pred","grocery store.png",1,1,1
"13/04/2021 19:25:28","13/04/2021 15:25:28",48742,5,3600543,"5e63e793e50a6316a75213c4","Chrome 89.0.4389.114","reminder",5,"SS1",21,"Screen 1","response_keyboard",395.034999819472,4,1,1,0,"test_trial","SS1","pred","grocery store.png",2,4,1
"13/04/2021 19:25:29","13/04/2021 15:25:28",48742,5,3600543,"5e63e793e50a6316a75213c4","Chrome 89.0.4389.114","reminder",5,"SS1",22,"Screen 1","response_keyboard",185.339999850839,3,1,1,0,"test_trial","SS1","pred","grocery store.png",3,3,1
"13/04/2021 19:25:29","13/04/2021 15:25:29",48742,5,3600543,"5e63e793e50a6316a75213c4","Chrome 89.0.4389.114","reminder",5,"SS1",23,"Screen 1","response_keyboard",227.084999904037,4,1,1,0,"test_trial","SS1","pred","grocery store.png",4,4,1
"13/04/2021 19:25:33","13/04/2021 15:25:33",48742,5,3600543,"5e63e793e50a6316a75213c4","Chrome 89.0.4389.114","reminder",5,"SS1",24,"Screen 1","response_keyboard",3363.43499994837,2,1,1,0,"test_trial","SS1","pred","grocery store.png",5,2,1
"13/04/2021 19:25:34","13/04/2021 15:25:34",48742,5,3600543,"5e63e793e50a6316a75213c4","Chrome 89.0.4389.114","reminder",5,"SS1",25,"Screen 1","response_keyboard",357.605000026524,3,1,1,0,"test_trial","SS1","pred","grocery store.png",6,3,1
"13/04/2021 19:25:39","13/04/2021 15:25:39",48742,5,3600543,"5e63e793e50a6316a75213c4","Chrome 89.0.4389.114","reminder",5,"SS1",28,"Screen 1","response_keyboard",498.804999981076,1,1,1,0,"test_trial","SS1","pred","grocery store.png",1,1,2
"13/04/2021 19:25:40","13/04/2021 15:25:40",48742,5,3600543,"5e63e793e50a6316a75213c4","Chrome 89.0.4389.114","reminder",5,"SS1",29,"Screen 1","response_keyboard",253.454999998212,4,1,1,0,"test_trial","SS1","pred","grocery store.png",2,4,2
"13/04/2021 19:25:41","13/04/2021 15:25:41",48742,5,3600543,"5e63e793e50a6316a75213c4","Chrome 89.0.4389.114","reminder",5,"SS1",30,"Screen 1","response_keyboard",210.055000148714,3,1,1,0,"test_trial","SS1","pred","grocery store.png",3,3,2
"13/04/2021 19:25:41","13/04/2021 15:25:41",48742,5,3600543,"5e63e793e50a6316a75213c4","Chrome 89.0.4389.114","reminder",5,"SS1",31,"Screen 1","response_keyboard",207.734999945387,4,1,1,0,"test_trial","SS1","pred","grocery store.png",4,4,2
"13/04/2021 19:25:42","13/04/2021 15:25:42",48742,5,3600543,"5e63e793e50a6316a75213c4","Chrome 89.0.4389.114","reminder",5,"SS1",32,"Screen 1","response_keyboard",230.94499995932,2,1,1,0,"test_trial","SS1","pred","grocery store.png",5,2,2
"13/04/2021 19:25:43","13/04/2021 15:25:43",48742,5,3600543,"5e63e793e50a6316a75213c4","Chrome 89.0.4389.114","reminder",5,"SS1",33,"Screen 1","response_keyboard",183.024999918416,3,1,1,0,"test_trial","SS1","pred","grocery store.png",6,3,2
"13/04/2021 21:07:25","13/04/2021 17:07:24",48742,5,3601240,"5e274886bcb84f052bf6858f","Chrome 88.0.4324.182","reminder",5,"SS6",20,"Screen 1","response_keyboard",1353.92500000307,1,1,1,0,"test_trial","SS6","pred","pet store.png",1,1,1
"13/04/2021 21:07:25","13/04/2021 17:07:25",48742,5,3601240,"5e274886bcb84f052bf6858f","Chrome 88.0.4324.182","reminder",5,"SS6",21,"Screen 1","response_keyboard",414.954999985639,4,1,1,0,"test_trial","SS6","pred","pet store.png",2,4,1
"13/04/2021 21:07:26","13/04/2021 17:07:26",48742,5,3601240,"5e274886bcb84f052bf6858f","Chrome 88.0.4324.182","reminder",5,"SS6",22,"Screen 1","response_keyboard",355.544999998529,3,1,1,0,"test_trial","SS6","pred","pet store.png",3,3,1
"13/04/2021 21:07:27","13/04/2021 17:07:27",48742,5,3601240,"5e274886bcb84f052bf6858f","Chrome 88.0.4324.182","reminder",5,"SS6",23,"Screen 1","response_keyboard",355.029999976978,4,1,1,0,"test_trial","SS6","pred","pet store.png",4,4,1
"13/04/2021 21:07:28","13/04/2021 17:07:28",48742,5,3601240,"5e274886bcb84f052bf6858f","Chrome 88.0.4324.182","reminder",5,"SS6",24,"Screen 1","response_keyboard",251.250000030268,2,1,1,0,"test_trial","SS6","pred","pet store.png",5,2,1
"13/04/2021 21:07:29","13/04/2021 17:07:29",48742,5,3601240,"5e274886bcb84f052bf6858f","Chrome 88.0.4324.182","reminder",5,"SS6",25,"Screen 1","response_keyboard",248.474999971222,3,1,1,0,"test_trial","SS6","pred","pet store.png",6,3,1
"13/04/2021 21:07:34","13/04/2021 17:07:34",48742,5,3601240,"5e274886bcb84f052bf6858f","Chrome 88.0.4324.182","reminder",5,"SS6",28,"Screen 1","response_keyboard",560.534999996889,1,1,1,0,"test_trial","SS6","pred","pet store.png",1,1,2
"13/04/2021 21:07:35","13/04/2021 17:07:35",48742,5,3601240,"5e274886bcb84f052bf6858f","Chrome 88.0.4324.182","reminder",5,"SS6",29,"Screen 1","response_keyboard",251.470000017434,4,1,1,0,"test_trial","SS6","pred","pet store.png",2,4,2
"13/04/2021 21:07:36","13/04/2021 17:07:36",48742,5,3601240,"5e274886bcb84f052bf6858f","Chrome 88.0.4324.182","reminder",5,"SS6",30,"Screen 1","response_keyboard",572.704999998678,3,1,1,0,"test_trial","SS6","pred","pet store.png",3,3,2
"13/04/2021 21:07:37","13/04/2021 17:07:37",48742,5,3601240,"5e274886bcb84f052bf6858f","Chrome 88.0.4324.182","reminder",5,"SS6",31,"Screen 1","response_keyboard",240.664999990258,4,1,1,0,"test_trial","SS6","pred","pet store.png",4,4,2
"13/04/2021 21:07:38","13/04/2021 17:07:37",48742,5,3601240,"5e274886bcb84f052bf6858f","Chrome 88.0.4324.182","reminder",5,"SS6",32,"Screen 1","response_keyboard",302.209999994375,2,1,1,0,"test_trial","SS6","pred","pet store.png",5,2,2
"13/04/2021 21:07:38","13/04/2021 17:07:38",48742,5,3601240,"5e274886bcb84f052bf6858f","Chrome 88.0.4324.182","reminder",5,"SS6",33,"Screen 1","response_keyboard",306.34499998996,3,1,1,0,"test_trial","SS6","pred","pet store.png",6,3,2
"13/04/2021 21:07:55","13/04/2021 14:07:52",48742,5,3601257,"5fdfed60fdb6e68d1e94cdd2","Chrome 89.0.4389.114","reminder",5,"SS4",20,"Screen 1","response_keyboard",626.18499994278,3,1,1,0,"test_trial","SS4","pred","pet store.png",1,3,1
"13/04/2021 21:07:57","13/04/2021 14:07:53",48742,5,3601257,"5fdfed60fdb6e68d1e94cdd2","Chrome 89.0.4389.114","reminder",5,"SS4",21,"Screen 1","response_keyboard",325.865000020713,2,1,1,0,"test_trial","SS4","pred","pet store.png",2,2,1
"13/04/2021 21:07:57","13/04/2021 14:07:54",48742,5,3601257,"5fdfed60fdb6e68d1e94cdd2","Chrome 89.0.4389.114","reminder",5,"SS4",22,"Screen 1","response_keyboard",241.614999948069,4,1,1,0,"test_trial","SS4","pred","pet store.png",3,4,1
"13/04/2021 21:07:58","13/04/2021 14:07:54",48742,5,3601257,"5fdfed60fdb6e68d1e94cdd2","Chrome 89.0.4389.114","reminder",5,"SS4",23,"Screen 1","response_keyboard",228.000000119209,2,1,1,0,"test_trial","SS4","pred","pet store.png",4,2,1
"13/04/2021 21:07:59","13/04/2021 14:07:55",48742,5,3601257,"5fdfed60fdb6e68d1e94cdd2","Chrome 89.0.4389.114","reminder",5,"SS4",24,"Screen 1","response_keyboard",348.660000134259,1,1,1,0,"test_trial","SS4","pred","pet store.png",5,1,1
"13/04/2021 21:08:00","13/04/2021 14:07:56",48742,5,3601257,"5fdfed60fdb6e68d1e94cdd2","Chrome 89.0.4389.114","reminder",5,"SS4",25,"Screen 1","response_keyboard",179.955000057817,4,1,1,0,"test_trial","SS4","pred","pet store.png",6,4,1
"13/04/2021 21:08:05","13/04/2021 14:08:01",48742,5,3601257,"5fdfed60fdb6e68d1e94cdd2","Chrome 89.0.4389.114","reminder",5,"SS4",28,"Screen 1","response_keyboard",519.79500008747,3,1,1,0,"test_trial","SS4","pred","pet store.png",1,3,2
"13/04/2021 21:08:06","13/04/2021 14:08:02",48742,5,3601257,"5fdfed60fdb6e68d1e94cdd2","Chrome 89.0.4389.114","reminder",5,"SS4",29,"Screen 1","response_keyboard",162.160000065342,2,1,1,0,"test_trial","SS4","pred","pet store.png",2,2,2
"13/04/2021 21:08:07","13/04/2021 14:08:03",48742,5,3601257,"5fdfed60fdb6e68d1e94cdd2","Chrome 89.0.4389.114","reminder",5,"SS4",30,"Screen 1","response_keyboard",156.674999976531,4,1,1,0,"test_trial","SS4","pred","pet store.png",3,4,2
"13/04/2021 21:08:07","13/04/2021 14:08:04",48742,5,3601257,"5fdfed60fdb6e68d1e94cdd2","Chrome 89.0.4389.114","reminder",5,"SS4",31,"Screen 1","response_keyboard",216.789999976754,2,1,1,0,"test_trial","SS4","pred","pet store.png",4,2,2
"13/04/2021 21:08:08","13/04/2021 14:08:05",48742,5,3601257,"5fdfed60fdb6e68d1e94cdd2","Chrome 89.0.4389.114","reminder",5,"SS4",32,"Screen 1","response_keyboard",221.004999941215,1,1,1,0,"test_trial","SS4","pred","pet store.png",5,1,2
"13/04/2021 21:08:09","13/04/2021 14:08:05",48742,5,3601257,"5fdfed60fdb6e68d1e94cdd2","Chrome 89.0.4389.114","reminder",5,"SS4",33,"Screen 1","response_keyboard",180.334999924526,4,1,1,0,"test_trial","SS4","pred","pet store.png",6,4,2
"13/04/2021 21:09:49","13/04/2021 16:09:48",48742,5,3601242,"5f4f12010c816616c12ab29d","Chrome 89.0.4389.114","reminder",5,"SS2",20,"Screen 1","response_keyboard",3322.95499998145,1,1,1,0,"test_trial","SS2","pred","pet store.png",1,1,1
"13/04/2021 21:09:52","13/04/2021 16:09:52",48742,5,3601242,"5f4f12010c816616c12ab29d","Chrome 89.0.4389.114","reminder",5,"SS2",21,"Screen 1","response_keyboard",2825.81999991089,4,1,1,0,"test_trial","SS2","pred","pet store.png",2,4,1
"13/04/2021 21:09:53","13/04/2021 16:09:53",48742,5,3601242,"5f4f12010c816616c12ab29d","Chrome 89.0.4389.114","reminder",5,"SS2",22,"Screen 1","response_keyboard",817.765000043437,3,1,1,0,"test_trial","SS2","pred","pet store.png",3,3,1
"13/04/2021 21:09:55","13/04/2021 16:09:55",48742,5,3601242,"5f4f12010c816616c12ab29d","Chrome 89.0.4389.114","reminder",5,"SS2",23,"Screen 1","response_keyboard",1172.64999984764,4,1,1,0,"test_trial","SS2","pred","pet store.png",4,4,1
"13/04/2021 21:09:56","13/04/2021 16:09:56",48742,5,3601242,"5f4f12010c816616c12ab29d","Chrome 89.0.4389.114","reminder",5,"SS2",24,"Screen 1","response_keyboard",539.980000117794,2,1,1,0,"test_trial","SS2","pred","pet store.png",5,2,1
"13/04/2021 21:09:57","13/04/2021 16:09:57",48742,5,3601242,"5f4f12010c816616c12ab29d","Chrome 89.0.4389.114","reminder",5,"SS2",25,"Screen 1","response_keyboard",579.064999939874,3,1,1,0,"test_trial","SS2","pred","pet store.png",6,3,1
"13/04/2021 21:10:03","13/04/2021 16:10:03",48742,5,3601242,"5f4f12010c816616c12ab29d","Chrome 89.0.4389.114","reminder",5,"SS2",28,"Screen 1","response_keyboard",1252.25499994121,1,1,1,0,"test_trial","SS2","pred","pet store.png",1,1,2
"13/04/2021 21:10:04","13/04/2021 16:10:04",48742,5,3601242,"5f4f12010c816616c12ab29d","Chrome 89.0.4389.114","reminder",5,"SS2",29,"Screen 1","response_keyboard",307.104999898002,4,1,1,0,"test_trial","SS2","pred","pet store.png",2,4,2
"13/04/2021 21:10:05","13/04/2021 16:10:05",48742,5,3601242,"5f4f12010c816616c12ab29d","Chrome 89.0.4389.114","reminder",5,"SS2",30,"Screen 1","response_keyboard",463.505000108853,3,1,1,0,"test_trial","SS2","pred","pet store.png",3,3,2
"13/04/2021 21:10:06","13/04/2021 16:10:06",48742,5,3601242,"5f4f12010c816616c12ab29d","Chrome 89.0.4389.114","reminder",5,"SS2",31,"Screen 1","response_keyboard",410.059999907389,4,1,1,0,"test_trial","SS2","pred","pet store.png",4,4,2
"13/04/2021 21:10:07","13/04/2021 16:10:07",48742,5,3601242,"5f4f12010c816616c12ab29d","Chrome 89.0.4389.114","reminder",5,"SS2",32,"Screen 1","response_keyboard",464.725000085309,2,1,1,0,"test_trial","SS2","pred","pet store.png",5,2,2
"13/04/2021 21:10:08","13/04/2021 16:10:08",48742,5,3601242,"5f4f12010c816616c12ab29d","Chrome 89.0.4389.114","reminder",5,"SS2",33,"Screen 1","response_keyboard",322.189999977127,3,1,1,0,"test_trial","SS2","pred","pet store.png",6,3,2
"13/04/2021 21:12:07","13/04/2021 14:12:06",48742,5,3601309,"5e6f2e0fa2c0564d8816c03d","Chrome 89.0.4389.114","reminder",5,"SS8",20,"Screen 1","response_keyboard",697.849999996834,3,1,1,0,"test_trial","SS8","pred","pet store.png",1,3,1
"13/04/2021 21:12:08","13/04/2021 14:12:07",48742,5,3601309,"5e6f2e0fa2c0564d8816c03d","Chrome 89.0.4389.114","reminder",5,"SS8",21,"Screen 1","response_keyboard",248.200000001816,2,1,1,0,"test_trial","SS8","pred","pet store.png",2,2,1
"13/04/2021 21:12:09","13/04/2021 14:12:07",48742,5,3601309,"5e6f2e0fa2c0564d8816c03d","Chrome 89.0.4389.114","reminder",5,"SS8",22,"Screen 1","response_keyboard",112.665000007837,4,1,1,0,"test_trial","SS8","pred","pet store.png",3,4,1
"13/04/2021 21:12:09","13/04/2021 14:12:08",48742,5,3601309,"5e6f2e0fa2c0564d8816c03d","Chrome 89.0.4389.114","reminder",5,"SS8",23,"Screen 1","response_keyboard",70.6650000065565,2,1,1,0,"test_trial","SS8","pred","pet store.png",4,2,1
"13/04/2021 21:12:10","13/04/2021 14:12:08",48742,5,3601309,"5e6f2e0fa2c0564d8816c03d","Chrome 89.0.4389.114","reminder",5,"SS8",24,"Screen 1","response_keyboard",18.1600000069011,1,1,1,0,"test_trial","SS8","pred","pet store.png",5,1,1
"13/04/2021 21:12:11","13/04/2021 14:12:09",48742,5,3601309,"5e6f2e0fa2c0564d8816c03d","Chrome 89.0.4389.114","reminder",5,"SS8",25,"Screen 1","response_keyboard",48.4300000098301,4,1,1,0,"test_trial","SS8","pred","pet store.png",6,4,1
"13/04/2021 21:12:16","13/04/2021 14:12:14",48742,5,3601309,"5e6f2e0fa2c0564d8816c03d","Chrome 89.0.4389.114","reminder",5,"SS8",28,"Screen 1","response_keyboard",619.365000005928,3,1,1,0,"test_trial","SS8","pred","pet store.png",1,3,2
"13/04/2021 21:12:17","13/04/2021 14:12:15",48742,5,3601309,"5e6f2e0fa2c0564d8816c03d","Chrome 89.0.4389.114","reminder",5,"SS8",29,"Screen 1","response_keyboard",201.0050000099,2,1,1,0,"test_trial","SS8","pred","pet store.png",2,2,2
"13/04/2021 21:12:17","13/04/2021 14:12:16",48742,5,3601309,"5e6f2e0fa2c0564d8816c03d","Chrome 89.0.4389.114","reminder",5,"SS8",30,"Screen 1","response_keyboard",188.544999997248,4,1,1,0,"test_trial","SS8","pred","pet store.png",3,4,2
"13/04/2021 21:12:18","13/04/2021 14:12:16",48742,5,3601309,"5e6f2e0fa2c0564d8816c03d","Chrome 89.0.4389.114","reminder",5,"SS8",31,"Screen 1","response_keyboard",134.755000006407,2,1,1,0,"test_trial","SS8","pred","pet store.png",4,2,2
"13/04/2021 21:12:19","13/04/2021 14:12:17",48742,5,3601309,"5e6f2e0fa2c0564d8816c03d","Chrome 89.0.4389.114","reminder",5,"SS8",32,"Screen 1","response_keyboard",256.519999995362,1,1,1,0,"test_trial","SS8","pred","pet store.png",5,1,2
"13/04/2021 21:12:20","13/04/2021 14:12:18",48742,5,3601309,"5e6f2e0fa2c0564d8816c03d","Chrome 89.0.4389.114","reminder",5,"SS8",33,"Screen 1","response_keyboard",217.120000001159,4,1,1,0,"test_trial","SS8","pred","pet store.png",6,4,2
"13/04/2021 21:16:29","13/04/2021 14:16:29",48742,5,3601295,"6021a1418a2f591e46a92aea","Chrome 89.0.4389.114","reminder",5,"SS5",20,"Screen 1","response_keyboard",511.155000014696,1,1,1,0,"test_trial","SS5","pred","grocery store.png",1,1,1
"13/04/2021 21:16:30","13/04/2021 14:16:30",48742,5,3601295,"6021a1418a2f591e46a92aea","Chrome 89.0.4389.114","reminder",5,"SS5",21,"Screen 1","response_keyboard",335.445000004256,4,1,1,0,"test_trial","SS5","pred","grocery store.png",2,4,1
"13/04/2021 21:16:31","13/04/2021 14:16:31",48742,5,3601295,"6021a1418a2f591e46a92aea","Chrome 89.0.4389.114","reminder",5,"SS5",22,"Screen 1","response_keyboard",140.280000021448,3,1,1,0,"test_trial","SS5","pred","grocery store.png",3,3,1
"13/04/2021 21:16:32","13/04/2021 14:16:32",48742,5,3601295,"6021a1418a2f591e46a92aea","Chrome 89.0.4389.114","reminder",5,"SS5",23,"Screen 1","response_keyboard",43.3600000105798,4,1,1,0,"test_trial","SS5","pred","grocery store.png",4,4,1
"13/04/2021 21:16:32","13/04/2021 14:16:33",48742,5,3601295,"6021a1418a2f591e46a92aea","Chrome 89.0.4389.114","reminder",5,"SS5",24,"Screen 1","response_keyboard",182.595000020228,2,1,1,0,"test_trial","SS5","pred","grocery store.png",5,2,1
"13/04/2021 21:16:33","13/04/2021 14:16:33",48742,5,3601295,"6021a1418a2f591e46a92aea","Chrome 89.0.4389.114","reminder",5,"SS5",25,"Screen 1","response_keyboard",241.32999998983,3,1,1,0,"test_trial","SS5","pred","grocery store.png",6,3,1
"13/04/2021 21:16:39","13/04/2021 14:16:39",48742,5,3601295,"6021a1418a2f591e46a92aea","Chrome 89.0.4389.114","reminder",5,"SS5",28,"Screen 1","response_keyboard",566.794999991544,1,1,1,0,"test_trial","SS5","pred","grocery store.png",1,1,2
"13/04/2021 21:16:40","13/04/2021 14:16:40",48742,5,3601295,"6021a1418a2f591e46a92aea","Chrome 89.0.4389.114","reminder",5,"SS5",29,"Screen 1","response_keyboard",196.409999975003,4,1,1,0,"test_trial","SS5","pred","grocery store.png",2,4,2
"13/04/2021 21:16:41","13/04/2021 14:16:41",48742,5,3601295,"6021a1418a2f591e46a92aea","Chrome 89.0.4389.114","reminder",5,"SS5",30,"Screen 1","response_keyboard",48.5250000201631,3,1,1,0,"test_trial","SS5","pred","grocery store.png",3,3,2
"13/04/2021 21:16:41","13/04/2021 14:16:41",48742,5,3601295,"6021a1418a2f591e46a92aea","Chrome 89.0.4389.114","reminder",5,"SS5",31,"Screen 1","response_keyboard",98.2599999988452,4,1,1,0,"test_trial","SS5","pred","grocery store.png",4,4,2
"13/04/2021 21:16:42","13/04/2021 14:16:42",48742,5,3601295,"6021a1418a2f591e46a92aea","Chrome 89.0.4389.114","reminder",5,"SS5",32,"Screen 1","response_keyboard",6.95499998982996,2,1,1,0,"test_trial","SS5","pred","grocery store.png",5,2,2
"13/04/2021 21:16:42","13/04/2021 14:16:43",48742,5,3601295,"6021a1418a2f591e46a92aea","Chrome 89.0.4389.114","reminder",5,"SS5",33,"Screen 1","response_keyboard",13.8349999906495,3,1,1,0,"test_trial","SS5","pred","grocery store.png",6,3,2
"13/04/2021 21:16:34","13/04/2021 17:16:36",48742,5,3601247,"5af2f93fe1b5b8000148c0c7","Edge 89.0.774.76","reminder",5,"SS7",20,"Screen 1","response_keyboard",550.709999995888,3,1,1,0,"test_trial","SS7","pred","grocery store.png",1,3,1
"13/04/2021 21:16:35","13/04/2021 17:16:37",48742,5,3601247,"5af2f93fe1b5b8000148c0c7","Edge 89.0.774.76","reminder",5,"SS7",21,"Screen 1","response_keyboard",282.334999996237,2,1,1,0,"test_trial","SS7","pred","grocery store.png",2,2,1
"13/04/2021 21:16:35","13/04/2021 17:16:37",48742,5,3601247,"5af2f93fe1b5b8000148c0c7","Edge 89.0.774.76","reminder",5,"SS7",22,"Screen 1","response_keyboard",275.015000006533,4,1,1,0,"test_trial","SS7","pred","grocery store.png",3,4,1
"13/04/2021 21:16:36","13/04/2021 17:16:38",48742,5,3601247,"5af2f93fe1b5b8000148c0c7","Edge 89.0.774.76","reminder",5,"SS7",23,"Screen 1","response_keyboard",259.079999988899,2,1,1,0,"test_trial","SS7","pred","grocery store.png",4,2,1
"13/04/2021 21:16:37","13/04/2021 17:16:39",48742,5,3601247,"5af2f93fe1b5b8000148c0c7","Edge 89.0.774.76","reminder",5,"SS7",24,"Screen 1","response_keyboard",207.030000005034,1,1,1,0,"test_trial","SS7","pred","grocery store.png",5,1,1
"13/04/2021 21:16:38","13/04/2021 17:16:40",48742,5,3601247,"5af2f93fe1b5b8000148c0c7","Edge 89.0.774.76","reminder",5,"SS7",25,"Screen 1","response_keyboard",93.3400000067195,4,1,1,0,"test_trial","SS7","pred","grocery store.png",6,4,1
"13/04/2021 21:16:43","13/04/2021 17:16:45",48742,5,3601247,"5af2f93fe1b5b8000148c0c7","Edge 89.0.774.76","reminder",5,"SS7",28,"Screen 1","response_keyboard",570.29999999213,3,1,1,0,"test_trial","SS7","pred","grocery store.png",1,3,2
"13/04/2021 21:16:44","13/04/2021 17:16:46",48742,5,3601247,"5af2f93fe1b5b8000148c0c7","Edge 89.0.774.76","reminder",5,"SS7",29,"Screen 1","response_keyboard",261.979999995674,2,1,1,0,"test_trial","SS7","pred","grocery store.png",2,2,2
"13/04/2021 21:16:45","13/04/2021 17:16:46",48742,5,3601247,"5af2f93fe1b5b8000148c0c7","Edge 89.0.774.76","reminder",5,"SS7",30,"Screen 1","response_keyboard",179.029999999329,4,1,1,0,"test_trial","SS7","pred","grocery store.png",3,4,2
"13/04/2021 21:16:45","13/04/2021 17:16:47",48742,5,3601247,"5af2f93fe1b5b8000148c0c7","Edge 89.0.774.76","reminder",5,"SS7",31,"Screen 1","response_keyboard",87.6649999991059,2,1,1,0,"test_trial","SS7","pred","grocery store.png",4,2,2
"13/04/2021 21:16:46","13/04/2021 17:16:48",48742,5,3601247,"5af2f93fe1b5b8000148c0c7","Edge 89.0.774.76","reminder",5,"SS7",32,"Screen 1","response_keyboard",77.3250000056578,1,1,1,0,"test_trial","SS7","pred","grocery store.png",5,1,2
"13/04/2021 21:16:46","13/04/2021 17:16:48",48742,5,3601247,"5af2f93fe1b5b8000148c0c7","Edge 89.0.774.76","reminder",5,"SS7",33,"Screen 1","response_keyboard",29.7949999949196,4,1,1,0,"test_trial","SS7","pred","grocery store.png",6,4,2
"13/04/2021 21:23:31","13/04/2021 14:23:31",48742,5,3601363,"5e6fe86f7245355b33d7b045","Chrome 87.0.4280.141","reminder",5,"SS3",20,"Screen 1","response_keyboard",763.65500013344,3,1,1,0,"test_trial","SS3","pred","grocery store.png",1,3,1
"13/04/2021 21:23:33","13/04/2021 14:23:32",48742,5,3601363,"5e6fe86f7245355b33d7b045","Chrome 87.0.4280.141","reminder",5,"SS3",21,"Screen 1","response_keyboard",351.930000120774,2,1,1,0,"test_trial","SS3","pred","grocery store.png",2,2,1
"13/04/2021 21:23:34","13/04/2021 14:23:33",48742,5,3601363,"5e6fe86f7245355b33d7b045","Chrome 87.0.4280.141","reminder",5,"SS3",22,"Screen 1","response_keyboard",291.660000104457,4,1,1,0,"test_trial","SS3","pred","grocery store.png",3,4,1
"13/04/2021 21:23:34","13/04/2021 14:23:33",48742,5,3601363,"5e6fe86f7245355b33d7b045","Chrome 87.0.4280.141","reminder",5,"SS3",23,"Screen 1","response_keyboard",32.050000037998,2,1,1,0,"test_trial","SS3","pred","grocery store.png",4,2,1
"13/04/2021 21:23:34","13/04/2021 14:23:34",48742,5,3601363,"5e6fe86f7245355b33d7b045","Chrome 87.0.4280.141","reminder",5,"SS3",24,"Screen 1","response_keyboard",101.220000069588,1,1,1,0,"test_trial","SS3","pred","grocery store.png",5,1,1
"13/04/2021 21:23:35","13/04/2021 14:23:35",48742,5,3601363,"5e6fe86f7245355b33d7b045","Chrome 87.0.4280.141","reminder",5,"SS3",25,"Screen 1","response_keyboard",2.80499993823469,4,1,1,0,"test_trial","SS3","pred","grocery store.png",6,4,1
"13/04/2021 21:23:40","13/04/2021 14:23:40",48742,5,3601363,"5e6fe86f7245355b33d7b045","Chrome 87.0.4280.141","reminder",5,"SS3",28,"Screen 1","response_keyboard",615.950000006706,3,1,1,0,"test_trial","SS3","pred","grocery store.png",1,3,2
"13/04/2021 21:23:41","13/04/2021 14:23:40",48742,5,3601363,"5e6fe86f7245355b33d7b045","Chrome 87.0.4280.141","reminder",5,"SS3",29,"Screen 1","response_keyboard",78.4699998330325,2,1,1,0,"test_trial","SS3","pred","grocery store.png",2,2,2
"13/04/2021 21:23:42","13/04/2021 14:23:41",48742,5,3601363,"5e6fe86f7245355b33d7b045","Chrome 87.0.4280.141","reminder",5,"SS3",30,"Screen 1","response_keyboard",138.604999985546,4,1,1,0,"test_trial","SS3","pred","grocery store.png",3,4,2
"13/04/2021 21:23:43","13/04/2021 14:23:43",48742,5,3601363,"5e6fe86f7245355b33d7b045","Chrome 87.0.4280.141","reminder",5,"SS3",31,"Screen 1","response_keyboard",1031.45000012591,2,1,1,0,"test_trial","SS3","pred","grocery store.png",4,2,2
"13/04/2021 21:23:44","13/04/2021 14:23:44",48742,5,3601363,"5e6fe86f7245355b33d7b045","Chrome 87.0.4280.141","reminder",5,"SS3",32,"Screen 1","response_keyboard",743.875000160187,1,1,1,0,"test_trial","SS3","pred","grocery store.png",5,1,2
"13/04/2021 21:23:45","13/04/2021 14:23:45",48742,5,3601363,"5e6fe86f7245355b33d7b045","Chrome 87.0.4280.141","reminder",5,"SS3",33,"Screen 1","response_keyboard",584.274999797344,4,1,1,0,"test_trial","SS3","pred","grocery store.png",6,4,2
"13/04/2021 21:26:30","13/04/2021 17:26:31",48742,5,3601298,"5ba855d47c0ebe0001272f70","Chrome 89.0.4389.114","reminder",5,"SS1",20,"Screen 1","response_keyboard",496.789999997418,1,1,1,0,"test_trial","SS1","pred","grocery store.png",1,1,1
"13/04/2021 21:26:31","13/04/2021 17:26:32",48742,5,3601298,"5ba855d47c0ebe0001272f70","Chrome 89.0.4389.114","reminder",5,"SS1",21,"Screen 1","response_keyboard",203.825000000506,4,1,1,0,"test_trial","SS1","pred","grocery store.png",2,4,1
"13/04/2021 21:26:32","13/04/2021 17:26:33",48742,5,3601298,"5ba855d47c0ebe0001272f70","Chrome 89.0.4389.114","reminder",5,"SS1",22,"Screen 1","response_keyboard",203.105000000505,3,1,1,0,"test_trial","SS1","pred","grocery store.png",3,3,1
"13/04/2021 21:26:33","13/04/2021 17:26:33",48742,5,3601298,"5ba855d47c0ebe0001272f70","Chrome 89.0.4389.114","reminder",5,"SS1",23,"Screen 1","response_keyboard",182.949999998527,4,1,1,0,"test_trial","SS1","pred","grocery store.png",4,4,1
"13/04/2021 21:26:34","13/04/2021 17:26:34",48742,5,3601298,"5ba855d47c0ebe0001272f70","Chrome 89.0.4389.114","reminder",5,"SS1",24,"Screen 1","response_keyboard",169.420000001992,2,1,1,0,"test_trial","SS1","pred","grocery store.png",5,2,1
"13/04/2021 21:26:34","13/04/2021 17:26:35",48742,5,3601298,"5ba855d47c0ebe0001272f70","Chrome 89.0.4389.114","reminder",5,"SS1",25,"Screen 1","response_keyboard",90.6699999977718,3,1,1,0,"test_trial","SS1","pred","grocery store.png",6,3,1
"13/04/2021 21:26:40","13/04/2021 17:26:40",48742,5,3601298,"5ba855d47c0ebe0001272f70","Chrome 89.0.4389.114","reminder",5,"SS1",28,"Screen 1","response_keyboard",404.689999999391,1,1,1,0,"test_trial","SS1","pred","grocery store.png",1,1,2
"13/04/2021 21:26:41","13/04/2021 17:26:41",48742,5,3601298,"5ba855d47c0ebe0001272f70","Chrome 89.0.4389.114","reminder",5,"SS1",29,"Screen 1","response_keyboard",539.054999997461,4,1,1,0,"test_trial","SS1","pred","grocery store.png",2,4,2
"13/04/2021 21:26:42","13/04/2021 17:26:42",48742,5,3601298,"5ba855d47c0ebe0001272f70","Chrome 89.0.4389.114","reminder",5,"SS1",30,"Screen 1","response_keyboard",192.309999998542,3,1,1,0,"test_trial","SS1","pred","grocery store.png",3,3,2
"13/04/2021 21:26:42","13/04/2021 17:26:43",48742,5,3601298,"5ba855d47c0ebe0001272f70","Chrome 89.0.4389.114","reminder",5,"SS1",31,"Screen 1","response_keyboard",165.775000001304,4,1,1,0,"test_trial","SS1","pred","grocery store.png",4,4,2
"13/04/2021 21:26:43","13/04/2021 17:26:44",48742,5,3601298,"5ba855d47c0ebe0001272f70","Chrome 89.0.4389.114","reminder",5,"SS1",32,"Screen 1","response_keyboard",183.179999999993,2,1,1,0,"test_trial","SS1","pred","grocery store.png",5,2,2
"13/04/2021 21:26:44","13/04/2021 17:26:44",48742,5,3601298,"5ba855d47c0ebe0001272f70","Chrome 89.0.4389.114","reminder",5,"SS1",33,"Screen 1","response_keyboard",65.9500000001572,3,1,1,0,"test_trial","SS1","pred","grocery store.png",6,3,2
"13/04/2021 23:46:12","13/04/2021 18:46:12",48742,5,3601810,"5a1f24609b760100013a8c1b","Chrome 89.0.4389.114","reminder",5,"SS6",20,"Screen 1","response_keyboard",1425.16499999965,1,1,1,0,"test_trial","SS6","pred","pet store.png",1,1,1
"13/04/2021 23:46:13","13/04/2021 18:46:13",48742,5,3601810,"5a1f24609b760100013a8c1b","Chrome 89.0.4389.114","reminder",5,"SS6",21,"Screen 1","response_keyboard",479.925000000549,4,1,1,0,"test_trial","SS6","pred","pet store.png",2,4,1
"13/04/2021 23:46:14","13/04/2021 18:46:14",48742,5,3601810,"5a1f24609b760100013a8c1b","Chrome 89.0.4389.114","reminder",5,"SS6",22,"Screen 1","response_keyboard",373.909999999341,3,1,1,0,"test_trial","SS6","pred","pet store.png",3,3,1
"13/04/2021 23:46:15","13/04/2021 18:46:15",48742,5,3601810,"5a1f24609b760100013a8c1b","Chrome 89.0.4389.114","reminder",5,"SS6",23,"Screen 1","response_keyboard",312.310000000252,4,1,1,0,"test_trial","SS6","pred","pet store.png",4,4,1
"13/04/2021 23:46:16","13/04/2021 18:46:16",48742,5,3601810,"5a1f24609b760100013a8c1b","Chrome 89.0.4389.114","reminder",5,"SS6",24,"Screen 1","response_keyboard",415.495000000192,2,1,1,0,"test_trial","SS6","pred","pet store.png",5,2,1
"13/04/2021 23:46:17","13/04/2021 18:46:17",48742,5,3601810,"5a1f24609b760100013a8c1b","Chrome 89.0.4389.114","reminder",5,"SS6",25,"Screen 1","response_keyboard",246.309999999539,3,1,1,0,"test_trial","SS6","pred","pet store.png",6,3,1
"13/04/2021 23:46:22","13/04/2021 18:46:22",48742,5,3601810,"5a1f24609b760100013a8c1b","Chrome 89.0.4389.114","reminder",5,"SS6",28,"Screen 1","response_keyboard",515.379999999823,1,1,1,0,"test_trial","SS6","pred","pet store.png",1,1,2
"13/04/2021 23:46:23","13/04/2021 18:46:23",48742,5,3601810,"5a1f24609b760100013a8c1b","Chrome 89.0.4389.114","reminder",5,"SS6",29,"Screen 1","response_keyboard",354.099999999562,4,1,1,0,"test_trial","SS6","pred","pet store.png",2,4,2
"13/04/2021 23:46:24","13/04/2021 18:46:23",48742,5,3601810,"5a1f24609b760100013a8c1b","Chrome 89.0.4389.114","reminder",5,"SS6",30,"Screen 1","response_keyboard",138.614999999845,3,1,1,0,"test_trial","SS6","pred","pet store.png",3,3,2
"13/04/2021 23:46:24","13/04/2021 18:46:24",48742,5,3601810,"5a1f24609b760100013a8c1b","Chrome 89.0.4389.114","reminder",5,"SS6",31,"Screen 1","response_keyboard",2.18000000040774,4,1,1,0,"test_trial","SS6","pred","pet store.png",4,4,2
"13/04/2021 23:46:25","13/04/2021 18:46:25",48742,5,3601810,"5a1f24609b760100013a8c1b","Chrome 89.0.4389.114","reminder",5,"SS6",32,"Screen 1","response_keyboard",71.8999999999141,2,1,1,0,"test_trial","SS6","pred","pet store.png",5,2,2
"13/04/2021 23:46:25","13/04/2021 18:46:25",48742,5,3601810,"5a1f24609b760100013a8c1b","Chrome 89.0.4389.114","reminder",5,"SS6",33,"Screen 1","response_keyboard",1.90500000007887,3,1,1,0,"test_trial","SS6","pred","pet store.png",6,3,2
"13/04/2021 22:46:22","13/04/2021 18:46:21",48742,5,3601662,"6035cf48ab65f735a5ebb489","Chrome 89.0.4389.114","reminder",5,"SS4",20,"Screen 1","response_keyboard",633.110000053421,3,1,1,0,"test_trial","SS4","pred","pet store.png",1,3,1
"13/04/2021 22:46:22","13/04/2021 18:46:22",48742,5,3601662,"6035cf48ab65f735a5ebb489","Chrome 89.0.4389.114","reminder",5,"SS4",21,"Screen 1","response_keyboard",366.919999942183,2,1,1,0,"test_trial","SS4","pred","pet store.png",2,2,1
"13/04/2021 22:46:23","13/04/2021 18:46:23",48742,5,3601662,"6035cf48ab65f735a5ebb489","Chrome 89.0.4389.114","reminder",5,"SS4",22,"Screen 1","response_keyboard",306.235000025481,4,1,1,0,"test_trial","SS4","pred","pet store.png",3,4,1
"13/04/2021 22:46:24","13/04/2021 18:46:24",48742,5,3601662,"6035cf48ab65f735a5ebb489","Chrome 89.0.4389.114","reminder",5,"SS4",23,"Screen 1","response_keyboard",258.239999995567,2,1,1,0,"test_trial","SS4","pred","pet store.png",4,2,1
"13/04/2021 22:46:25","13/04/2021 18:46:25",48742,5,3601662,"6035cf48ab65f735a5ebb489","Chrome 89.0.4389.114","reminder",5,"SS4",24,"Screen 1","response_keyboard",266.87499997206,1,1,1,0,"test_trial","SS4","pred","pet store.png",5,1,1
"13/04/2021 22:46:26","13/04/2021 18:46:25",48742,5,3601662,"6035cf48ab65f735a5ebb489","Chrome 89.0.4389.114","reminder",5,"SS4",25,"Screen 1","response_keyboard",200.749999959953,4,1,1,0,"test_trial","SS4","pred","pet store.png",6,4,1
"13/04/2021 22:46:31","13/04/2021 18:46:31",48742,5,3601662,"6035cf48ab65f735a5ebb489","Chrome 89.0.4389.114","reminder",5,"SS4",28,"Screen 1","response_keyboard",602.100000018254,3,1,1,0,"test_trial","SS4","pred","pet store.png",1,3,2
"13/04/2021 22:46:32","13/04/2021 18:46:31",48742,5,3601662,"6035cf48ab65f735a5ebb489","Chrome 89.0.4389.114","reminder",5,"SS4",29,"Screen 1","response_keyboard",280.045000021346,2,1,1,0,"test_trial","SS4","pred","pet store.png",2,2,2
"13/04/2021 22:46:32","13/04/2021 18:46:32",48742,5,3601662,"6035cf48ab65f735a5ebb489","Chrome 89.0.4389.114","reminder",5,"SS4",30,"Screen 1","response_keyboard",143.769999966025,4,1,1,0,"test_trial","SS4","pred","pet store.png",3,4,2
"13/04/2021 22:46:33","13/04/2021 18:46:33",48742,5,3601662,"6035cf48ab65f735a5ebb489","Chrome 89.0.4389.114","reminder",5,"SS4",31,"Screen 1","response_keyboard",238.814999931492,2,1,1,0,"test_trial","SS4","pred","pet store.png",4,2,2
"13/04/2021 22:46:34","13/04/2021 18:46:34",48742,5,3601662,"6035cf48ab65f735a5ebb489","Chrome 89.0.4389.114","reminder",5,"SS4",32,"Screen 1","response_keyboard",184.830000041984,1,1,1,0,"test_trial","SS4","pred","pet store.png",5,1,2
"13/04/2021 22:46:35","13/04/2021 18:46:34",48742,5,3601662,"6035cf48ab65f735a5ebb489","Chrome 89.0.4389.114","reminder",5,"SS4",33,"Screen 1","response_keyboard",41.6950000217184,4,1,1,0,"test_trial","SS4","pred","pet store.png",6,4,2
"13/04/2021 22:42:33","13/04/2021 18:42:32",48742,5,3601604,"5eb883cc52bcce7d6fadf5a0","Chrome 89.0.4389.114","reminder",5,"SS2",20,"Screen 1","response_keyboard",739.819999998872,1,1,1,0,"test_trial","SS2","pred","pet store.png",1,1,1
"13/04/2021 22:42:34","13/04/2021 18:42:34",48742,5,3601604,"5eb883cc52bcce7d6fadf5a0","Chrome 89.0.4389.114","reminder",5,"SS2",21,"Screen 1","response_keyboard",924.629999997705,4,1,1,0,"test_trial","SS2","pred","pet store.png",2,4,1
"13/04/2021 22:42:35","13/04/2021 18:42:35",48742,5,3601604,"5eb883cc52bcce7d6fadf5a0","Chrome 89.0.4389.114","reminder",5,"SS2",22,"Screen 1","response_keyboard",364.864999999554,3,1,1,0,"test_trial","SS2","pred","pet store.png",3,3,1
"13/04/2021 22:42:36","13/04/2021 18:42:35",48742,5,3601604,"5eb883cc52bcce7d6fadf5a0","Chrome 89.0.4389.114","reminder",5,"SS2",23,"Screen 1","response_keyboard",23.8700000008976,4,1,1,0,"test_trial","SS2","pred","pet store.png",4,4,1
"13/04/2021 22:42:36","13/04/2021 18:42:36",48742,5,3601604,"5eb883cc52bcce7d6fadf5a0","Chrome 89.0.4389.114","reminder",5,"SS2",24,"Screen 1","response_keyboard",97.6300000002084,2,1,1,0,"test_trial","SS2","pred","pet store.png",5,2,1
"13/04/2021 22:42:38","13/04/2021 18:42:38",48742,5,3601604,"5eb883cc52bcce7d6fadf5a0","Chrome 89.0.4389.114","reminder",5,"SS2",25,"Screen 1","response_keyboard",1058.37000000247,3,1,1,0,"test_trial","SS2","pred","pet store.png",6,3,1
"13/04/2021 22:42:43","13/04/2021 18:42:43",48742,5,3601604,"5eb883cc52bcce7d6fadf5a0","Chrome 89.0.4389.114","reminder",5,"SS2",28,"Screen 1","response_keyboard",788.305000001856,1,1,1,0,"test_trial","SS2","pred","pet store.png",1,1,2
"13/04/2021 22:42:45","13/04/2021 18:42:45",48742,5,3601604,"5eb883cc52bcce7d6fadf5a0","Chrome 89.0.4389.114","reminder",5,"SS2",29,"Screen 1","response_keyboard",1036.53999999733,4,1,1,0,"test_trial","SS2","pred","pet store.png",2,4,2
"13/04/2021 22:42:46","13/04/2021 18:42:45",48742,5,3601604,"5eb883cc52bcce7d6fadf5a0","Chrome 89.0.4389.114","reminder",5,"SS2",30,"Screen 1","response_keyboard",175.755000000208,3,1,1,0,"test_trial","SS2","pred","pet store.png",3,3,2
"13/04/2021 22:42:46","13/04/2021 18:42:46",48742,5,3601604,"5eb883cc52bcce7d6fadf5a0","Chrome 89.0.4389.114","reminder",5,"SS2",31,"Screen 1","response_keyboard",300.384999998641,4,1,1,0,"test_trial","SS2","pred","pet store.png",4,4,2
"13/04/2021 22:42:47","13/04/2021 18:42:47",48742,5,3601604,"5eb883cc52bcce7d6fadf5a0","Chrome 89.0.4389.114","reminder",5,"SS2",32,"Screen 1","response_keyboard",306.960000001709,2,1,1,0,"test_trial","SS2","pred","pet store.png",5,2,2
"13/04/2021 22:42:48","13/04/2021 18:42:48",48742,5,3601604,"5eb883cc52bcce7d6fadf5a0","Chrome 89.0.4389.114","reminder",5,"SS2",33,"Screen 1","response_keyboard",214.520000001357,3,1,1,0,"test_trial","SS2","pred","pet store.png",6,3,2
"13/04/2021 21:49:29","13/04/2021 16:49:28",48742,5,3601451,"5cbe04b4f429ff00159de30e","Chrome 89.0.4389.95","reminder",5,"SS5",20,"Screen 1","response_keyboard",704.175000020768,1,1,1,0,"test_trial","SS5","pred","grocery store.png",1,1,1
"13/04/2021 21:49:30","13/04/2021 16:49:29",48742,5,3601451,"5cbe04b4f429ff00159de30e","Chrome 89.0.4389.95","reminder",5,"SS5",21,"Screen 1","response_keyboard",869.484999973793,4,1,1,0,"test_trial","SS5","pred","grocery store.png",2,4,1
"13/04/2021 21:49:32","13/04/2021 16:49:31",48742,5,3601451,"5cbe04b4f429ff00159de30e","Chrome 89.0.4389.95","reminder",5,"SS5",22,"Screen 1","response_keyboard",647.034999972675,3,1,1,0,"test_trial","SS5","pred","grocery store.png",3,3,1
"13/04/2021 21:49:33","13/04/2021 16:49:32",48742,5,3601451,"5cbe04b4f429ff00159de30e","Chrome 89.0.4389.95","reminder",5,"SS5",23,"Screen 1","response_keyboard",605.230000044685,4,1,1,0,"test_trial","SS5","pred","grocery store.png",4,4,1
"13/04/2021 21:49:34","13/04/2021 16:49:33",48742,5,3601451,"5cbe04b4f429ff00159de30e","Chrome 89.0.4389.95","reminder",5,"SS5",24,"Screen 1","response_keyboard",317.240000003949,2,1,1,0,"test_trial","SS5","pred","grocery store.png",5,2,1
"13/04/2021 21:49:35","13/04/2021 16:49:34",48742,5,3601451,"5cbe04b4f429ff00159de30e","Chrome 89.0.4389.95","reminder",5,"SS5",25,"Screen 1","response_keyboard",146.944999985863,3,1,1,0,"test_trial","SS5","pred","grocery store.png",6,3,1
"13/04/2021 21:49:41","13/04/2021 16:49:40",48742,5,3601451,"5cbe04b4f429ff00159de30e","Chrome 89.0.4389.95","reminder",5,"SS5",28,"Screen 1","response_keyboard",1671.18000000482,1,1,1,0,"test_trial","SS5","pred","grocery store.png",1,1,2
"13/04/2021 21:49:43","13/04/2021 16:49:42",48742,5,3601451,"5cbe04b4f429ff00159de30e","Chrome 89.0.4389.95","reminder",5,"SS5",29,"Screen 1","response_keyboard",703.645000001416,4,1,1,0,"test_trial","SS5","pred","grocery store.png",2,4,2
"13/04/2021 21:49:44","13/04/2021 16:49:43",48742,5,3601451,"5cbe04b4f429ff00159de30e","Chrome 89.0.4389.95","reminder",5,"SS5",30,"Screen 1","response_keyboard",382.334999972954,3,1,1,0,"test_trial","SS5","pred","grocery store.png",3,3,2
"13/04/2021 21:49:45","13/04/2021 16:49:44",48742,5,3601451,"5cbe04b4f429ff00159de30e","Chrome 89.0.4389.95","reminder",5,"SS5",31,"Screen 1","response_keyboard",167.075000004843,4,1,1,0,"test_trial","SS5","pred","grocery store.png",4,4,2
"13/04/2021 21:49:46","13/04/2021 16:49:44",48742,5,3601451,"5cbe04b4f429ff00159de30e","Chrome 89.0.4389.95","reminder",5,"SS5",32,"Screen 1","response_keyboard",62.1099999989383,2,1,1,0,"test_trial","SS5","pred","grocery store.png",5,2,2
"13/04/2021 21:49:50","13/04/2021 16:49:49",48742,5,3601451,"5cbe04b4f429ff00159de30e","Chrome 89.0.4389.95","reminder",5,"SS5",33,"Screen 1","response_keyboard",3789.73499999847,3,1,1,0,"test_trial","SS5","pred","grocery store.png",6,3,2
"13/04/2021 21:19:31","13/04/2021 16:19:31",48742,5,3601255,"5e387a5c32667b0943276347","Chrome 89.0.4389.114","reminder",5,"SS3",20,"Screen 1","response_keyboard",665.444999933243,3,1,1,0,"test_trial","SS3","pred","grocery store.png",1,3,1
"13/04/2021 21:19:32","13/04/2021 16:19:32",48742,5,3601255,"5e387a5c32667b0943276347","Chrome 89.0.4389.114","reminder",5,"SS3",21,"Screen 1","response_keyboard",622.824999969453,2,1,1,0,"test_trial","SS3","pred","grocery store.png",2,2,1
"13/04/2021 21:19:33","13/04/2021 16:19:33",48742,5,3601255,"5e387a5c32667b0943276347","Chrome 89.0.4389.114","reminder",5,"SS3",22,"Screen 1","response_keyboard",647.979999892414,4,1,1,0,"test_trial","SS3","pred","grocery store.png",3,4,1
"13/04/2021 21:19:34","13/04/2021 16:19:34",48742,5,3601255,"5e387a5c32667b0943276347","Chrome 89.0.4389.114","reminder",5,"SS3",23,"Screen 1","response_keyboard",676.349999848753,2,1,1,0,"test_trial","SS3","pred","grocery store.png",4,2,1
"13/04/2021 21:19:36","13/04/2021 16:19:35",48742,5,3601255,"5e387a5c32667b0943276347","Chrome 89.0.4389.114","reminder",5,"SS3",24,"Screen 1","response_keyboard",558.459999971092,1,1,1,0,"test_trial","SS3","pred","grocery store.png",5,1,1
"13/04/2021 21:19:37","13/04/2021 16:19:36",48742,5,3601255,"5e387a5c32667b0943276347","Chrome 89.0.4389.114","reminder",5,"SS3",25,"Screen 1","response_keyboard",474.734999937937,4,1,1,0,"test_trial","SS3","pred","grocery store.png",6,4,1
"13/04/2021 21:19:42","13/04/2021 16:19:42",48742,5,3601255,"5e387a5c32667b0943276347","Chrome 89.0.4389.114","reminder",5,"SS3",28,"Screen 1","response_keyboard",1006.79500005208,3,1,1,0,"test_trial","SS3","pred","grocery store.png",1,3,2
"13/04/2021 21:19:43","13/04/2021 16:19:43",48742,5,3601255,"5e387a5c32667b0943276347","Chrome 89.0.4389.114","reminder",5,"SS3",29,"Screen 1","response_keyboard",515.445000026375,2,1,1,0,"test_trial","SS3","pred","grocery store.png",2,2,2
"13/04/2021 21:19:44","13/04/2021 16:19:44",48742,5,3601255,"5e387a5c32667b0943276347","Chrome 89.0.4389.114","reminder",5,"SS3",30,"Screen 1","response_keyboard",417.574999853969,4,1,1,0,"test_trial","SS3","pred","grocery store.png",3,4,2
"13/04/2021 21:19:47","13/04/2021 16:19:47",48742,5,3601255,"5e387a5c32667b0943276347","Chrome 89.0.4389.114","reminder",5,"SS3",31,"Screen 1","response_keyboard",1918.64000004716,2,1,1,0,"test_trial","SS3","pred","grocery store.png",4,2,2
"13/04/2021 21:19:48","13/04/2021 16:19:47",48742,5,3601255,"5e387a5c32667b0943276347","Chrome 89.0.4389.114","reminder",5,"SS3",32,"Screen 1","response_keyboard",393.434999976307,1,1,1,0,"test_trial","SS3","pred","grocery store.png",5,1,2
"13/04/2021 21:19:49","13/04/2021 16:19:48",48742,5,3601255,"5e387a5c32667b0943276347","Chrome 89.0.4389.114","reminder",5,"SS3",33,"Screen 1","response_keyboard",396.790000144392,4,1,1,0,"test_trial","SS3","pred","grocery store.png",6,4,2
"13/04/2021 21:11:32","13/04/2021 11:11:32",48742,5,3601265,"5f0523936e93408277d06897","Firefox 87.0","reminder",5,"SS6",20,"Screen 1","response_keyboard",851,1,1,1,0,"test_trial","SS6","pred","pet store.png",1,1,1
"13/04/2021 21:11:33","13/04/2021 11:11:33",48742,5,3601265,"5f0523936e93408277d06897","Firefox 87.0","reminder",5,"SS6",21,"Screen 1","response_keyboard",387,4,1,1,0,"test_trial","SS6","pred","pet store.png",2,4,1
"13/04/2021 21:11:34","13/04/2021 11:11:34",48742,5,3601265,"5f0523936e93408277d06897","Firefox 87.0","reminder",5,"SS6",22,"Screen 1","response_keyboard",315,3,1,1,0,"test_trial","SS6","pred","pet store.png",3,3,1
"13/04/2021 21:11:35","13/04/2021 11:11:35",48742,5,3601265,"5f0523936e93408277d06897","Firefox 87.0","reminder",5,"SS6",23,"Screen 1","response_keyboard",322,4,1,1,0,"test_trial","SS6","pred","pet store.png",4,4,1
"13/04/2021 21:11:36","13/04/2021 11:11:36",48742,5,3601265,"5f0523936e93408277d06897","Firefox 87.0","reminder",5,"SS6",24,"Screen 1","response_keyboard",361,2,1,1,0,"test_trial","SS6","pred","pet store.png",5,2,1
"13/04/2021 21:11:37","13/04/2021 11:11:37",48742,5,3601265,"5f0523936e93408277d06897","Firefox 87.0","reminder",5,"SS6",25,"Screen 1","response_keyboard",336,3,1,1,0,"test_trial","SS6","pred","pet store.png",6,3,1
"13/04/2021 21:11:42","13/04/2021 11:11:42",48742,5,3601265,"5f0523936e93408277d06897","Firefox 87.0","reminder",5,"SS6",28,"Screen 1","response_keyboard",677,1,1,1,0,"test_trial","SS6","pred","pet store.png",1,1,2
"13/04/2021 21:11:43","13/04/2021 11:11:43",48742,5,3601265,"5f0523936e93408277d06897","Firefox 87.0","reminder",5,"SS6",29,"Screen 1","response_keyboard",291,4,1,1,0,"test_trial","SS6","pred","pet store.png",2,4,2
"13/04/2021 21:11:44","13/04/2021 11:11:44",48742,5,3601265,"5f0523936e93408277d06897","Firefox 87.0","reminder",5,"SS6",30,"Screen 1","response_keyboard",306,3,1,1,0,"test_trial","SS6","pred","pet store.png",3,3,2
"13/04/2021 21:11:45","13/04/2021 11:11:44",48742,5,3601265,"5f0523936e93408277d06897","Firefox 87.0","reminder",5,"SS6",31,"Screen 1","response_keyboard",333,4,1,1,0,"test_trial","SS6","pred","pet store.png",4,4,2
"13/04/2021 21:11:46","13/04/2021 11:11:45",48742,5,3601265,"5f0523936e93408277d06897","Firefox 87.0","reminder",5,"SS6",32,"Screen 1","response_keyboard",484,2,1,1,0,"test_trial","SS6","pred","pet store.png",5,2,2
"13/04/2021 21:11:47","13/04/2021 11:11:46",48742,5,3601265,"5f0523936e93408277d06897","Firefox 87.0","reminder",5,"SS6",33,"Screen 1","response_keyboard",326,3,1,1,0,"test_trial","SS6","pred","pet store.png",6,3,2
"13/04/2021 21:12:19","13/04/2021 17:12:19",48742,5,3601246,"5e7a0da5c8327f0406f24b9a","Chrome 89.0.4389.114","reminder",5,"SS8",20,"Screen 1","response_keyboard",997.800000011921,3,1,1,0,"test_trial","SS8","pred","pet store.png",1,3,1
"13/04/2021 21:12:21","13/04/2021 17:12:21",48742,5,3601246,"5e7a0da5c8327f0406f24b9a","Chrome 89.0.4389.114","reminder",5,"SS8",21,"Screen 1","response_keyboard",1439.84000000637,2,1,1,0,"test_trial","SS8","pred","pet store.png",2,2,1
"13/04/2021 21:12:22","13/04/2021 17:12:21",48742,5,3601246,"5e7a0da5c8327f0406f24b9a","Chrome 89.0.4389.114","reminder",5,"SS8",22,"Screen 1","response_keyboard",148.059999919496,4,1,1,0,"test_trial","SS8","pred","pet store.png",3,4,1
"13/04/2021 21:12:23","13/04/2021 17:12:22",48742,5,3601246,"5e7a0da5c8327f0406f24b9a","Chrome 89.0.4389.114","reminder",5,"SS8",23,"Screen 1","response_keyboard",560.904999962077,2,1,1,0,"test_trial","SS8","pred","pet store.png",4,2,1
"13/04/2021 21:12:24","13/04/2021 17:12:23",48742,5,3601246,"5e7a0da5c8327f0406f24b9a","Chrome 89.0.4389.114","reminder",5,"SS8",24,"Screen 1","response_keyboard",295.019999961369,1,1,1,0,"test_trial","SS8","pred","pet store.png",5,1,1
"13/04/2021 21:12:24","13/04/2021 17:12:24",48742,5,3601246,"5e7a0da5c8327f0406f24b9a","Chrome 89.0.4389.114","reminder",5,"SS8",25,"Screen 1","response_keyboard",237.740000011399,4,1,1,0,"test_trial","SS8","pred","pet store.png",6,4,1
"13/04/2021 21:12:30","13/04/2021 17:12:29",48742,5,3601246,"5e7a0da5c8327f0406f24b9a","Chrome 89.0.4389.114","reminder",5,"SS8",28,"Screen 1","response_keyboard",525.045000016689,3,1,1,0,"test_trial","SS8","pred","pet store.png",1,3,2
"13/04/2021 21:12:30","13/04/2021 17:12:30",48742,5,3601246,"5e7a0da5c8327f0406f24b9a","Chrome 89.0.4389.114","reminder",5,"SS8",29,"Screen 1","response_keyboard",1.65500002913177,2,1,1,0,"test_trial","SS8","pred","pet store.png",2,2,2
"13/04/2021 21:12:31","13/04/2021 17:12:31",48742,5,3601246,"5e7a0da5c8327f0406f24b9a","Chrome 89.0.4389.114","reminder",5,"SS8",30,"Screen 1","response_keyboard",528.35000003688,4,1,1,0,"test_trial","SS8","pred","pet store.png",3,4,2
"13/04/2021 21:12:32","13/04/2021 17:12:31",48742,5,3601246,"5e7a0da5c8327f0406f24b9a","Chrome 89.0.4389.114","reminder",5,"SS8",31,"Screen 1","response_keyboard",69.6350000798702,2,1,1,0,"test_trial","SS8","pred","pet store.png",4,2,2
"13/04/2021 21:12:33","13/04/2021 17:12:32",48742,5,3601246,"5e7a0da5c8327f0406f24b9a","Chrome 89.0.4389.114","reminder",5,"SS8",32,"Screen 1","response_keyboard",149.48500005994,1,1,1,0,"test_trial","SS8","pred","pet store.png",5,1,2
"13/04/2021 21:12:33","13/04/2021 17:12:33",48742,5,3601246,"5e7a0da5c8327f0406f24b9a","Chrome 89.0.4389.114","reminder",5,"SS8",33,"Screen 1","response_keyboard",93.0999999400228,4,1,1,0,"test_trial","SS8","pred","pet store.png",6,4,2
"13/04/2021 21:02:04","13/04/2021 17:02:03",48742,5,3601250,"601dcaad011c831f8f904add","Chrome 89.0.4389.114","reminder",5,"SS5",20,"Screen 1","response_keyboard",2155.39999993052,1,1,1,0,"test_trial","SS5","pred","grocery store.png",1,1,1
