"utc_date","local_date","exp_id","exp_ver","id","prolific_id","browser","task","task_ver","gorilla_counterbalance","trial_row","rt","response","attempt","accuracy","dishonest","display","counterbalance_order","list","event","condition","event_name","stim","seq_pos","spatial_pos"
"13/04/2021 14:59:48","13/04/2021 10:59:50",48742,5,3598281,"5e3adfc595ff562fbdd130fa","Edge 89.0.774.75","encoding_b1",4,"SS5",4,826.235000000452,1,1,1,0,"motor_trial_mem","SS5",1,1,"pred","grocery store.png","caramelapple.png",1,1
"13/04/2021 14:59:52","13/04/2021 10:59:55",48742,5,3598281,"5e3adfc595ff562fbdd130fa","Edge 89.0.774.75","encoding_b1",4,"SS5",6,965.664999996079,4,1,1,0,"motor_trial_mem","SS5",1,1,"pred","grocery store.png","poutine.png",2,4
"13/04/2021 14:59:57","13/04/2021 11:00:00",48742,5,3598281,"5e3adfc595ff562fbdd130fa","Edge 89.0.774.75","encoding_b1",4,"SS5",8,1511.61500000308,3,1,1,0,"motor_trial_mem","SS5",1,1,"pred","grocery store.png","mushrooms.png",3,3
"13/04/2021 15:00:02","13/04/2021 11:00:04",48742,5,3598281,"5e3adfc595ff562fbdd130fa","Edge 89.0.774.75","encoding_b1",4,"SS5",10,602.460000001884,4,1,1,0,"motor_trial_mem","SS5",1,1,"pred","grocery store.png","onion.png",4,4
"13/04/2021 15:00:07","13/04/2021 11:00:09",48742,5,3598281,"5e3adfc595ff562fbdd130fa","Edge 89.0.774.75","encoding_b1",4,"SS5",12,1455.43500000349,2,1,1,0,"motor_trial_mem","SS5",1,1,"pred","grocery store.png","broccoli.png",5,2
"13/04/2021 15:00:11","13/04/2021 11:00:13",48742,5,3598281,"5e3adfc595ff562fbdd130fa","Edge 89.0.774.75","encoding_b1",4,"SS5",14,617.91500000254,3,1,1,0,"motor_trial_mem","SS5",1,1,"pred","grocery store.png","basil.png",6,3
"13/04/2021 15:00:19","13/04/2021 11:00:22",48742,5,3598281,"5e3adfc595ff562fbdd130fa","Edge 89.0.774.75","encoding_b1",4,"SS5",18,692.340000001423,1,1,1,0,"motor_trial_mem","SS5",1,2,"pred","grocery store.png","watermelon.png",1,1
"13/04/2021 15:00:23","13/04/2021 11:00:25",48742,5,3598281,"5e3adfc595ff562fbdd130fa","Edge 89.0.774.75","encoding_b1",4,"SS5",20,286.025000001246,4,1,1,0,"motor_trial_mem","SS5",1,2,"pred","grocery store.png","popcornshrimp.png",2,4
"13/04/2021 15:00:27","13/04/2021 11:00:30",48742,5,3598281,"5e3adfc595ff562fbdd130fa","Edge 89.0.774.75","encoding_b1",4,"SS5",22,1115.20000000019,3,1,1,0,"motor_trial_mem","SS5",1,2,"pred","grocery store.png","coffee.png",3,3
"13/04/2021 15:00:31","13/04/2021 11:00:34",48742,5,3598281,"5e3adfc595ff562fbdd130fa","Edge 89.0.774.75","encoding_b1",4,"SS5",24,228.360000000976,4,1,1,0,"motor_trial_mem","SS5",1,2,"pred","grocery store.png","cabbage.png",4,4
"13/04/2021 15:00:35","13/04/2021 11:00:38",48742,5,3598281,"5e3adfc595ff562fbdd130fa","Edge 89.0.774.75","encoding_b1",4,"SS5",26,758.365000001504,2,1,1,0,"motor_trial_mem","SS5",1,2,"pred","grocery store.png","guava.png",5,2
"13/04/2021 15:00:39","13/04/2021 11:00:42",48742,5,3598281,"5e3adfc595ff562fbdd130fa","Edge 89.0.774.75","encoding_b1",4,"SS5",28,602.950000000419,3,1,1,0,"motor_trial_mem","SS5",1,2,"pred","grocery store.png","nachos.png",6,3
"13/04/2021 15:00:48","13/04/2021 11:00:50",48742,5,3598281,"5e3adfc595ff562fbdd130fa","Edge 89.0.774.75","encoding_b1",4,"SS5",32,689.064999998664,4,1,1,0,"motor_trial_cue","SS5",1,3,"rand","pet store.png","pufferfish.png",1,4
"13/04/2021 15:00:52","13/04/2021 11:00:54",48742,5,3598281,"5e3adfc595ff562fbdd130fa","Edge 89.0.774.75","encoding_b1",4,"SS5",34,550.645000002987,3,1,1,0,"motor_trial_cue","SS5",1,3,"rand","pet store.png","dolphin.png",2,3
"13/04/2021 15:00:56","13/04/2021 11:00:59",48742,5,3598281,"5e3adfc595ff562fbdd130fa","Edge 89.0.774.75","encoding_b1",4,"SS5",36,595.445000006293,1,1,1,0,"motor_trial_cue","SS5",1,3,"rand","pet store.png","stingray.png",3,1
"13/04/2021 15:01:00","13/04/2021 11:01:03",48742,5,3598281,"5e3adfc595ff562fbdd130fa","Edge 89.0.774.75","encoding_b1",4,"SS5",38,928.209999998217,2,1,1,0,"motor_trial_cue","SS5",1,3,"rand","pet store.png","crocodile.png",4,2
"13/04/2021 15:01:04","13/04/2021 11:01:07",48742,5,3598281,"5e3adfc595ff562fbdd130fa","Edge 89.0.774.75","encoding_b1",4,"SS5",40,478.510000000824,1,1,1,0,"motor_trial_cue","SS5",1,3,"rand","pet store.png","boar.png",5,1
"13/04/2021 15:01:08","13/04/2021 11:01:11",48742,5,3598281,"5e3adfc595ff562fbdd130fa","Edge 89.0.774.75","encoding_b1",4,"SS5",42,593.78000000288,3,1,1,0,"motor_trial_cue","SS5",1,3,"rand","pet store.png","llama.png",6,3
"13/04/2021 15:01:17","13/04/2021 11:01:19",48742,5,3598281,"5e3adfc595ff562fbdd130fa","Edge 89.0.774.75","encoding_b1",4,"SS5",46,613.165000002482,3,1,1,0,"motor_trial_cue","SS5",1,4,"rand","pet store.png","parrot.png",1,3
"13/04/2021 15:01:21","13/04/2021 11:01:23",48742,5,3598281,"5e3adfc595ff562fbdd130fa","Edge 89.0.774.75","encoding_b1",4,"SS5",48,536.944999999832,4,1,1,0,"motor_trial_cue","SS5",1,4,"rand","pet store.png","ferret.png",2,4
"13/04/2021 15:01:25","13/04/2021 11:01:27",48742,5,3598281,"5e3adfc595ff562fbdd130fa","Edge 89.0.774.75","encoding_b1",4,"SS5",50,486.479999999574,1,1,1,0,"motor_trial_cue","SS5",1,4,"rand","pet store.png","owl.png",3,1
"13/04/2021 15:01:29","13/04/2021 11:01:32",48742,5,3598281,"5e3adfc595ff562fbdd130fa","Edge 89.0.774.75","encoding_b1",4,"SS5",52,660.654999999679,2,1,1,0,"motor_trial_cue","SS5",1,4,"rand","pet store.png","pig.png",4,2
"13/04/2021 15:01:33","13/04/2021 11:01:36",48742,5,3598281,"5e3adfc595ff562fbdd130fa","Edge 89.0.774.75","encoding_b1",4,"SS5",54,574.150000000373,1,1,1,0,"motor_trial_cue","SS5",1,4,"rand","pet store.png","pug.png",5,1
"13/04/2021 15:01:37","13/04/2021 11:01:40",48742,5,3598281,"5e3adfc595ff562fbdd130fa","Edge 89.0.774.75","encoding_b1",4,"SS5",56,504.845000003115,4,1,1,0,"motor_trial_cue","SS5",1,4,"rand","pet store.png","hippo.png",6,4
"13/04/2021 15:03:59","13/04/2021 11:04:01",48742,5,3598281,"5e3adfc595ff562fbdd130fa","Edge 89.0.774.75","encoding_b2",3,"SS5",4,671.519999996235,1,1,1,0,"motor_trial_mem","SS5",2,1,"pred","grocery store.png","peanutbutter.png",1,1
"13/04/2021 15:04:03","13/04/2021 11:04:06",48742,5,3598281,"5e3adfc595ff562fbdd130fa","Edge 89.0.774.75","encoding_b2",3,"SS5",6,1086.41999999963,4,1,1,0,"motor_trial_mem","SS5",2,1,"pred","grocery store.png","acaibowl.png",2,4
"13/04/2021 15:04:08","13/04/2021 11:04:11",48742,5,3598281,"5e3adfc595ff562fbdd130fa","Edge 89.0.774.75","encoding_b2",3,"SS5",8,1292.63999999966,3,1,1,0,"motor_trial_mem","SS5",2,1,"pred","grocery store.png","clams.png",3,3
"13/04/2021 15:04:12","13/04/2021 11:04:15",48742,5,3598281,"5e3adfc595ff562fbdd130fa","Edge 89.0.774.75","encoding_b2",3,"SS5",10,709.584999996878,4,1,1,0,"motor_trial_mem","SS5",2,1,"pred","grocery store.png","gummybears.png",4,4
"13/04/2021 15:04:17","13/04/2021 11:04:20",48742,5,3598281,"5e3adfc595ff562fbdd130fa","Edge 89.0.774.75","encoding_b2",3,"SS5",12,1365.50500000158,2,1,1,0,"motor_trial_mem","SS5",2,1,"pred","grocery store.png","dragonfruit.png",5,2
"13/04/2021 15:04:22","13/04/2021 11:04:24",48742,5,3598281,"5e3adfc595ff562fbdd130fa","Edge 89.0.774.75","encoding_b2",3,"SS5",14,887.015000000247,3,1,1,0,"motor_trial_mem","SS5",2,1,"pred","grocery store.png","cupnoodle.png",6,3
"13/04/2021 15:04:30","13/04/2021 11:04:33",48742,5,3598281,"5e3adfc595ff562fbdd130fa","Edge 89.0.774.75","encoding_b2",3,"SS5",18,751.859999996668,2,1,1,0,"motor_trial_cue","SS5",2,2,"rand","pet store.png","bettafish.png",1,2
"13/04/2021 15:04:34","13/04/2021 11:04:37",48742,5,3598281,"5e3adfc595ff562fbdd130fa","Edge 89.0.774.75","encoding_b2",3,"SS5",20,544.66500000126,4,1,1,0,"motor_trial_cue","SS5",2,2,"rand","pet store.png","chameleon.png",2,4
"13/04/2021 15:04:38","13/04/2021 11:04:41",48742,5,3598281,"5e3adfc595ff562fbdd130fa","Edge 89.0.774.75","encoding_b2",3,"SS5",22,565.849999999045,3,1,1,0,"motor_trial_cue","SS5",2,2,"rand","pet store.png","octopus.png",3,3
"13/04/2021 15:04:42","13/04/2021 11:04:45",48742,5,3598281,"5e3adfc595ff562fbdd130fa","Edge 89.0.774.75","encoding_b2",3,"SS5",24,576.074999997218,1,1,1,0,"motor_trial_cue","SS5",2,2,"rand","pet store.png","ladybug.png",4,1
"13/04/2021 15:04:46","13/04/2021 11:04:49",48742,5,3598281,"5e3adfc595ff562fbdd130fa","Edge 89.0.774.75","encoding_b2",3,"SS5",26,621.270000003278,3,1,1,0,"motor_trial_cue","SS5",2,2,"rand","pet store.png","gorilla.png",5,3
"13/04/2021 15:04:50","13/04/2021 11:04:53",48742,5,3598281,"5e3adfc595ff562fbdd130fa","Edge 89.0.774.75","encoding_b2",3,"SS5",28,488.870000001043,4,1,1,0,"motor_trial_cue","SS5",2,2,"rand","pet store.png","killerwhale.png",6,4
"13/04/2021 15:04:59","13/04/2021 11:05:02",48742,5,3598281,"5e3adfc595ff562fbdd130fa","Edge 89.0.774.75","encoding_b2",3,"SS5",32,1614.35499999789,1,1,1,0,"motor_trial_mem","SS5",2,3,"pred","grocery store.png","mustard.png",1,1
"13/04/2021 15:05:03","13/04/2021 11:05:06",48742,5,3598281,"5e3adfc595ff562fbdd130fa","Edge 89.0.774.75","encoding_b2",3,"SS5",34,353.709999995772,4,1,1,0,"motor_trial_mem","SS5",2,3,"pred","grocery store.png","cookies.png",2,4
"13/04/2021 15:05:07","13/04/2021 11:05:10",48742,5,3598281,"5e3adfc595ff562fbdd130fa","Edge 89.0.774.75","encoding_b2",3,"SS5",36,476.480000004813,3,1,1,0,"motor_trial_mem","SS5",2,3,"pred","grocery store.png","cantaloupe.png",3,3
"13/04/2021 15:05:11","13/04/2021 11:05:14",48742,5,3598281,"5e3adfc595ff562fbdd130fa","Edge 89.0.774.75","encoding_b2",3,"SS5",38,547.135000000708,4,1,1,0,"motor_trial_mem","SS5",2,3,"pred","grocery store.png","lemon.png",4,4
"13/04/2021 15:05:16","13/04/2021 11:05:18",48742,5,3598281,"5e3adfc595ff562fbdd130fa","Edge 89.0.774.75","encoding_b2",3,"SS5",40,703.025000002526,2,1,1,0,"motor_trial_mem","SS5",2,3,"pred","grocery store.png","bellpeppers.png",5,2
"13/04/2021 15:05:20","13/04/2021 11:05:23",48742,5,3598281,"5e3adfc595ff562fbdd130fa","Edge 89.0.774.75","encoding_b2",3,"SS5",42,1135.40000000648,3,1,1,0,"motor_trial_mem","SS5",2,3,"pred","grocery store.png","acornsquash.png",6,3
"13/04/2021 15:05:29","13/04/2021 11:05:31",48742,5,3598281,"5e3adfc595ff562fbdd130fa","Edge 89.0.774.75","encoding_b2",3,"SS5",46,715.579999996407,3,1,1,0,"motor_trial_cue","SS5",2,4,"rand","pet store.png","deer.png",1,3
"13/04/2021 15:05:33","13/04/2021 11:05:35",48742,5,3598281,"5e3adfc595ff562fbdd130fa","Edge 89.0.774.75","encoding_b2",3,"SS5",48,593.609999996261,1,1,1,0,"motor_trial_cue","SS5",2,4,"rand","pet store.png","donkey.png",2,1
"13/04/2021 15:05:37","13/04/2021 11:05:40",48742,5,3598281,"5e3adfc595ff562fbdd130fa","Edge 89.0.774.75","encoding_b2",3,"SS5",50,943.615000003774,2,1,1,0,"motor_trial_cue","SS5",2,4,"rand","pet store.png","eagle.png",3,2
"13/04/2021 15:05:41","13/04/2021 11:05:44",48742,5,3598281,"5e3adfc595ff562fbdd130fa","Edge 89.0.774.75","encoding_b2",3,"SS5",52,474.894999999378,1,1,1,0,"motor_trial_cue","SS5",2,4,"rand","pet store.png","panther.png",4,1
"13/04/2021 15:05:45","13/04/2021 11:05:48",48742,5,3598281,"5e3adfc595ff562fbdd130fa","Edge 89.0.774.75","encoding_b2",3,"SS5",54,492.664999997942,4,1,1,0,"motor_trial_cue","SS5",2,4,"rand","pet store.png","turkey.png",5,4
"13/04/2021 15:05:49","13/04/2021 11:05:52",48742,5,3598281,"5e3adfc595ff562fbdd130fa","Edge 89.0.774.75","encoding_b2",3,"SS5",56,475.955000001704,2,1,1,0,"motor_trial_cue","SS5",2,4,"rand","pet store.png","rat.png",6,2
"13/04/2021 15:07:49","13/04/2021 11:07:52",48742,5,3598281,"5e3adfc595ff562fbdd130fa","Edge 89.0.774.75","encoding_b3",2,"SS5",4,817.504999999073,2,1,1,0,"motor_trial_cue","SS5",3,1,"rand","pet store.png","zebra.png",1,2
"13/04/2021 15:07:54","13/04/2021 11:07:56",48742,5,3598281,"5e3adfc595ff562fbdd130fa","Edge 89.0.774.75","encoding_b3",2,"SS5",6,553.765000004205,4,1,1,0,"motor_trial_cue","SS5",3,1,"rand","pet store.png","turtle.png",2,4
"13/04/2021 15:07:58","13/04/2021 11:08:00",48742,5,3598281,"5e3adfc595ff562fbdd130fa","Edge 89.0.774.75","encoding_b3",2,"SS5",8,625.379999997676,3,1,1,0,"motor_trial_cue","SS5",3,1,"rand","pet store.png","chicken.png",3,3
"13/04/2021 15:08:02","13/04/2021 11:08:04",48742,5,3598281,"5e3adfc595ff562fbdd130fa","Edge 89.0.774.75","encoding_b3",2,"SS5",10,530.139999995299,1,1,1,0,"motor_trial_cue","SS5",3,1,"rand","pet store.png","lemur.png",4,1
"13/04/2021 15:08:06","13/04/2021 11:08:08",48742,5,3598281,"5e3adfc595ff562fbdd130fa","Edge 89.0.774.75","encoding_b3",2,"SS5",12,460.599999998522,4,1,1,0,"motor_trial_cue","SS5",3,1,"rand","pet store.png","sheep.png",5,4
"13/04/2021 15:08:10","13/04/2021 11:08:12",48742,5,3598281,"5e3adfc595ff562fbdd130fa","Edge 89.0.774.75","encoding_b3",2,"SS5",14,501.085000003513,1,1,1,0,"motor_trial_cue","SS5",3,1,"rand","pet store.png","redpanda.png",6,1
"13/04/2021 15:08:18","13/04/2021 11:08:20",48742,5,3598281,"5e3adfc595ff562fbdd130fa","Edge 89.0.774.75","encoding_b3",2,"SS5",18,524.689999998373,1,1,1,0,"motor_trial_mem","SS5",3,2,"pred","grocery store.png","orange.png",1,1
"13/04/2021 15:08:21","13/04/2021 11:08:24",48742,5,3598281,"5e3adfc595ff562fbdd130fa","Edge 89.0.774.75","encoding_b3",2,"SS5",20,2.88999999611406,4,1,1,0,"motor_trial_mem","SS5",3,2,"pred","grocery store.png","lychee.png",2,4
"13/04/2021 15:08:25","13/04/2021 11:08:28",48742,5,3598281,"5e3adfc595ff562fbdd130fa","Edge 89.0.774.75","encoding_b3",2,"SS5",22,219.08500000427,3,1,1,0,"motor_trial_mem","SS5",3,2,"pred","grocery store.png","popcorn.png",3,3
"13/04/2021 15:08:29","13/04/2021 11:08:31",48742,5,3598281,"5e3adfc595ff562fbdd130fa","Edge 89.0.774.75","encoding_b3",2,"SS5",24,142.079999997804,4,1,1,0,"motor_trial_mem","SS5",3,2,"pred","grocery store.png","cookedchicken.png",4,4
"13/04/2021 15:08:33","13/04/2021 11:08:36",48742,5,3598281,"5e3adfc595ff562fbdd130fa","Edge 89.0.774.75","encoding_b3",2,"SS5",26,829.685000004247,2,1,1,0,"motor_trial_mem","SS5",3,2,"pred","grocery store.png","strawberries.png",5,2
"13/04/2021 15:08:38","13/04/2021 11:08:41",48742,5,3598281,"5e3adfc595ff562fbdd130fa","Edge 89.0.774.75","encoding_b3",2,"SS5",28,1427.30500000471,3,1,1,0,"motor_trial_mem","SS5",3,2,"pred","grocery store.png","kiwi.png",6,3
"13/04/2021 15:08:46","13/04/2021 11:08:49",48742,5,3598281,"5e3adfc595ff562fbdd130fa","Edge 89.0.774.75","encoding_b3",2,"SS5",32,800.860000003013,2,1,1,0,"motor_trial_cue","SS5",3,3,"rand","pet store.png","vulture.png",1,2
"13/04/2021 15:08:52","13/04/2021 11:08:54",48742,5,3598281,"5e3adfc595ff562fbdd130fa","Edge 89.0.774.75","encoding_b3",2,"SS5",34,2019.00500000193,3,1,1,0,"motor_trial_cue","SS5",3,3,"rand","pet store.png","cardinal.png",2,3
"13/04/2021 15:08:56","13/04/2021 11:08:59",48742,5,3598281,"5e3adfc595ff562fbdd130fa","Edge 89.0.774.75","encoding_b3",2,"SS5",36,773.175000002084,1,1,1,0,"motor_trial_cue","SS5",3,3,"rand","pet store.png","giraffe.png",3,1
"13/04/2021 15:09:00","13/04/2021 11:09:03",48742,5,3598281,"5e3adfc595ff562fbdd130fa","Edge 89.0.774.75","encoding_b3",2,"SS5",38,739.704999999958,4,1,0,0,"motor_trial_cue","SS5",3,3,"rand","pet store.png","badger.png",4,3
"13/04/2021 15:09:04","13/04/2021 11:09:07",48742,5,3598281,"5e3adfc595ff562fbdd130fa","Edge 89.0.774.75","encoding_b3",2,"SS5",40,540.374999996857,4,1,1,0,"motor_trial_cue","SS5",3,3,"rand","pet store.png","wolf.png",5,4
"13/04/2021 15:09:09","13/04/2021 11:09:11",48742,5,3598281,"5e3adfc595ff562fbdd130fa","Edge 89.0.774.75","encoding_b3",2,"SS5",42,644.580000000133,1,1,1,0,"motor_trial_cue","SS5",3,3,"rand","pet store.png","polarbear.png",6,1
"13/04/2021 15:09:17","13/04/2021 11:09:19",48742,5,3598281,"5e3adfc595ff562fbdd130fa","Edge 89.0.774.75","encoding_b3",2,"SS5",46,558.430000004591,1,1,1,0,"motor_trial_mem","SS5",3,4,"pred","grocery store.png","tomato.png",1,1
"13/04/2021 15:09:21","13/04/2021 11:09:23",48742,5,3598281,"5e3adfc595ff562fbdd130fa","Edge 89.0.774.75","encoding_b3",2,"SS5",48,692.29500000074,4,1,1,0,"motor_trial_mem","SS5",3,4,"pred","grocery store.png","seaweed.png",2,4
"13/04/2021 15:09:25","13/04/2021 11:09:28",48742,5,3598281,"5e3adfc595ff562fbdd130fa","Edge 89.0.774.75","encoding_b3",2,"SS5",50,870.784999999159,3,1,1,0,"motor_trial_mem","SS5",3,4,"pred","grocery store.png","blackpepper.png",3,3
"13/04/2021 15:09:30","13/04/2021 11:09:32",48742,5,3598281,"5e3adfc595ff562fbdd130fa","Edge 89.0.774.75","encoding_b3",2,"SS5",52,831.83000000281,4,1,1,0,"motor_trial_mem","SS5",3,4,"pred","grocery store.png","corn.png",4,4
"13/04/2021 15:09:34","13/04/2021 11:09:36",48742,5,3598281,"5e3adfc595ff562fbdd130fa","Edge 89.0.774.75","encoding_b3",2,"SS5",54,525.854999999865,2,1,1,0,"motor_trial_mem","SS5",3,4,"pred","grocery store.png","burger.png",5,2
"13/04/2021 15:09:38","13/04/2021 11:09:41",48742,5,3598281,"5e3adfc595ff562fbdd130fa","Edge 89.0.774.75","encoding_b3",2,"SS5",56,716.314999997849,3,1,1,0,"motor_trial_mem","SS5",3,4,"pred","grocery store.png","sandwich.png",6,3
"13/04/2021 15:11:30","13/04/2021 11:11:32",48742,5,3598281,"5e3adfc595ff562fbdd130fa","Edge 89.0.774.75","encoding_b4",2,"SS5",4,696.714999998221,4,1,1,0,"motor_trial_cue","SS5",4,1,"rand","pet store.png","bear.png",1,4
"13/04/2021 15:11:34","13/04/2021 11:11:36",48742,5,3598281,"5e3adfc595ff562fbdd130fa","Edge 89.0.774.75","encoding_b4",2,"SS5",6,716.560000000754,2,1,1,0,"motor_trial_cue","SS5",4,1,"rand","pet store.png","hedgehog.png",2,2
"13/04/2021 15:11:38","13/04/2021 11:11:41",48742,5,3598281,"5e3adfc595ff562fbdd130fa","Edge 89.0.774.75","encoding_b4",2,"SS5",8,575.525000000198,3,1,1,0,"motor_trial_cue","SS5",4,1,"rand","pet store.png","cat.png",3,3
"13/04/2021 15:11:42","13/04/2021 11:11:45",48742,5,3598281,"5e3adfc595ff562fbdd130fa","Edge 89.0.774.75","encoding_b4",2,"SS5",10,497.65999999363,1,1,1,0,"motor_trial_cue","SS5",4,1,"rand","pet store.png","armadillo.png",4,1
"13/04/2021 15:11:46","13/04/2021 11:11:49",48742,5,3598281,"5e3adfc595ff562fbdd130fa","Edge 89.0.774.75","encoding_b4",2,"SS5",12,459.249999999884,2,1,1,0,"motor_trial_cue","SS5",4,1,"rand","pet store.png","moose.png",5,2
"13/04/2021 15:11:50","13/04/2021 11:11:53",48742,5,3598281,"5e3adfc595ff562fbdd130fa","Edge 89.0.774.75","encoding_b4",2,"SS5",14,421.659999999974,1,1,1,0,"motor_trial_cue","SS5",4,1,"rand","pet store.png","snake.png",6,1
"13/04/2021 15:11:58","13/04/2021 11:12:01",48742,5,3598281,"5e3adfc595ff562fbdd130fa","Edge 89.0.774.75","encoding_b4",2,"SS5",18,576.73000000068,4,1,1,0,"motor_trial_cue","SS5",4,2,"rand","pet store.png","canadiangoose.png",1,4
"13/04/2021 15:12:02","13/04/2021 11:12:05",48742,5,3598281,"5e3adfc595ff562fbdd130fa","Edge 89.0.774.75","encoding_b4",2,"SS5",20,546.069999996689,1,1,1,0,"motor_trial_cue","SS5",4,2,"rand","pet store.png","rabbit.png",2,1
"13/04/2021 15:12:07","13/04/2021 11:12:09",48742,5,3598281,"5e3adfc595ff562fbdd130fa","Edge 89.0.774.75","encoding_b4",2,"SS5",22,909.35499999614,3,1,1,0,"motor_trial_cue","SS5",4,2,"rand","pet store.png","bat.png",3,3
"13/04/2021 15:12:11","13/04/2021 11:12:13",48742,5,3598281,"5e3adfc595ff562fbdd130fa","Edge 89.0.774.75","encoding_b4",2,"SS5",24,457.374999998137,2,1,1,0,"motor_trial_cue","SS5",4,2,"rand","pet store.png","elephant.png",4,2
"13/04/2021 15:12:14","13/04/2021 11:12:17",48742,5,3598281,"5e3adfc595ff562fbdd130fa","Edge 89.0.774.75","encoding_b4",2,"SS5",26,440.519999996468,3,1,1,0,"motor_trial_cue","SS5",4,2,"rand","pet store.png","fox.png",5,3
"13/04/2021 15:12:18","13/04/2021 11:12:21",48742,5,3598281,"5e3adfc595ff562fbdd130fa","Edge 89.0.774.75","encoding_b4",2,"SS5",28,418.714999999793,1,1,1,0,"motor_trial_cue","SS5",4,2,"rand","pet store.png","frog.png",6,1
"13/04/2021 15:12:27","13/04/2021 11:12:29",48742,5,3598281,"5e3adfc595ff562fbdd130fa","Edge 89.0.774.75","encoding_b4",2,"SS5",32,753.12500000291,1,1,1,0,"motor_trial_mem","SS5",4,3,"pred","grocery store.png","cheese.png",1,1
"13/04/2021 15:12:31","13/04/2021 11:12:33",48742,5,3598281,"5e3adfc595ff562fbdd130fa","Edge 89.0.774.75","encoding_b4",2,"SS5",34,394.845000002533,4,1,1,0,"motor_trial_mem","SS5",4,3,"pred","grocery store.png","taco.png",2,4
"13/04/2021 15:12:35","13/04/2021 11:12:37",48742,5,3598281,"5e3adfc595ff562fbdd130fa","Edge 89.0.774.75","encoding_b4",2,"SS5",36,476.17000000173,3,1,1,0,"motor_trial_mem","SS5",4,3,"pred","grocery store.png","walnuts.png",3,3
"13/04/2021 15:12:39","13/04/2021 11:12:41",48742,5,3598281,"5e3adfc595ff562fbdd130fa","Edge 89.0.774.75","encoding_b4",2,"SS5",38,501.074999992852,4,1,1,0,"motor_trial_mem","SS5",4,3,"pred","grocery store.png","burrito.png",4,4
"13/04/2021 15:12:43","13/04/2021 11:12:46",48742,5,3598281,"5e3adfc595ff562fbdd130fa","Edge 89.0.774.75","encoding_b4",2,"SS5",40,1207.20500000607,2,1,1,0,"motor_trial_mem","SS5",4,3,"pred","grocery store.png","cereal.png",5,2
"13/04/2021 15:12:47","13/04/2021 11:12:50",48742,5,3598281,"5e3adfc595ff562fbdd130fa","Edge 89.0.774.75","encoding_b4",2,"SS5",42,562.630000000354,3,1,1,0,"motor_trial_mem","SS5",4,3,"pred","grocery store.png","pizza.png",6,3
"13/04/2021 15:12:55","13/04/2021 11:12:58",48742,5,3598281,"5e3adfc595ff562fbdd130fa","Edge 89.0.774.75","encoding_b4",2,"SS5",46,457.260000002861,1,1,1,0,"motor_trial_mem","SS5",4,4,"pred","grocery store.png","ravioli.png",1,1
"13/04/2021 15:13:00","13/04/2021 11:13:02",48742,5,3598281,"5e3adfc595ff562fbdd130fa","Edge 89.0.774.75","encoding_b4",2,"SS5",48,740.475000005972,4,1,1,0,"motor_trial_mem","SS5",4,4,"pred","grocery store.png","egg.png",2,4
"13/04/2021 15:13:04","13/04/2021 11:13:06",48742,5,3598281,"5e3adfc595ff562fbdd130fa","Edge 89.0.774.75","encoding_b4",2,"SS5",50,499.770000002172,3,1,1,0,"motor_trial_mem","SS5",4,4,"pred","grocery store.png","beet.png",3,3
"13/04/2021 15:13:08","13/04/2021 11:13:10",48742,5,3598281,"5e3adfc595ff562fbdd130fa","Edge 89.0.774.75","encoding_b4",2,"SS5",52,506.170000000566,4,1,1,0,"motor_trial_mem","SS5",4,4,"pred","grocery store.png","peaches.png",4,4
"13/04/2021 15:13:12","13/04/2021 11:13:15",48742,5,3598281,"5e3adfc595ff562fbdd130fa","Edge 89.0.774.75","encoding_b4",2,"SS5",54,980.900000002293,2,1,1,0,"motor_trial_mem","SS5",4,4,"pred","grocery store.png","bacon.png",5,2
"13/04/2021 15:13:16","13/04/2021 11:13:19",48742,5,3598281,"5e3adfc595ff562fbdd130fa","Edge 89.0.774.75","encoding_b4",2,"SS5",56,521.164999998291,3,1,1,0,"motor_trial_mem","SS5",4,4,"pred","grocery store.png","ramen.png",6,3
"13/04/2021 15:16:20","13/04/2021 11:16:22",48742,5,3598281,"5e3adfc595ff562fbdd130fa","Edge 89.0.774.75","encoding_b5",2,"SS5",4,478.325000003679,1,1,1,0,"motor_trial_mem","SS5",5,1,"pred","grocery store.png","croissant.png",1,1
"13/04/2021 15:16:24","13/04/2021 11:16:26",48742,5,3598281,"5e3adfc595ff562fbdd130fa","Edge 89.0.774.75","encoding_b5",2,"SS5",6,566.820000000007,4,1,1,0,"motor_trial_mem","SS5",5,1,"pred","grocery store.png","bagel.png",2,4
"13/04/2021 15:16:28","13/04/2021 11:16:31",48742,5,3598281,"5e3adfc595ff562fbdd130fa","Edge 89.0.774.75","encoding_b5",2,"SS5",8,1218.1700000001,3,1,1,0,"motor_trial_mem","SS5",5,1,"pred","grocery store.png","bread.png",3,3
"13/04/2021 15:16:32","13/04/2021 11:16:35",48742,5,3598281,"5e3adfc595ff562fbdd130fa","Edge 89.0.774.75","encoding_b5",2,"SS5",10,203.05499999813,4,1,1,0,"motor_trial_mem","SS5",5,1,"pred","grocery store.png","butter.png",4,4
"13/04/2021 15:16:36","13/04/2021 11:16:39",48742,5,3598281,"5e3adfc595ff562fbdd130fa","Edge 89.0.774.75","encoding_b5",2,"SS5",12,535.314999993716,2,1,1,0,"motor_trial_mem","SS5",5,1,"pred","grocery store.png","avocado.png",5,2
"13/04/2021 15:16:40","13/04/2021 11:16:43",48742,5,3598281,"5e3adfc595ff562fbdd130fa","Edge 89.0.774.75","encoding_b5",2,"SS5",14,132.665000004636,3,1,1,0,"motor_trial_mem","SS5",5,1,"pred","grocery store.png","granola.png",6,3
"13/04/2021 15:16:48","13/04/2021 11:16:51",48742,5,3598281,"5e3adfc595ff562fbdd130fa","Edge 89.0.774.75","encoding_b5",2,"SS5",18,882.924999998068,1,1,1,0,"motor_trial_mem","SS5",5,2,"pred","grocery store.png","dumplings.png",1,1
"13/04/2021 15:16:53","13/04/2021 11:16:55",48742,5,3598281,"5e3adfc595ff562fbdd130fa","Edge 89.0.774.75","encoding_b5",2,"SS5",20,838.359999994282,4,1,1,0,"motor_trial_mem","SS5",5,2,"pred","grocery store.png","coconut.png",2,4
"13/04/2021 15:16:57","13/04/2021 11:16:59",48742,5,3598281,"5e3adfc595ff562fbdd130fa","Edge 89.0.774.75","encoding_b5",2,"SS5",22,226.295000000391,3,1,1,0,"motor_trial_mem","SS5",5,2,"pred","grocery store.png","apple.png",3,3
"13/04/2021 15:17:01","13/04/2021 11:17:03",48742,5,3598281,"5e3adfc595ff562fbdd130fa","Edge 89.0.774.75","encoding_b5",2,"SS5",24,607.564999998431,4,1,1,0,"motor_trial_mem","SS5",5,2,"pred","grocery store.png","rice.png",4,4
"13/04/2021 15:17:05","13/04/2021 11:17:08",48742,5,3598281,"5e3adfc595ff562fbdd130fa","Edge 89.0.774.75","encoding_b5",2,"SS5",26,839.459999995597,2,1,1,0,"motor_trial_mem","SS5",5,2,"pred","grocery store.png","chocolatemilk.png",5,2
"13/04/2021 15:17:09","13/04/2021 11:17:12",48742,5,3598281,"5e3adfc595ff562fbdd130fa","Edge 89.0.774.75","encoding_b5",2,"SS5",28,842.225000000326,3,1,1,0,"motor_trial_mem","SS5",5,2,"pred","grocery store.png","pancakes.png",6,3
"13/04/2021 15:17:18","13/04/2021 11:17:20",48742,5,3598281,"5e3adfc595ff562fbdd130fa","Edge 89.0.774.75","encoding_b5",2,"SS5",32,858.269999996992,3,1,1,0,"motor_trial_cue","SS5",5,3,"rand","pet store.png","caterpillar.png",1,3
"13/04/2021 15:17:22","13/04/2021 11:17:25",48742,5,3598281,"5e3adfc595ff562fbdd130fa","Edge 89.0.774.75","encoding_b5",2,"SS5",34,559.36500000098,1,1,1,0,"motor_trial_cue","SS5",5,3,"rand","pet store.png","hammerheadshark.png",2,1
"13/04/2021 15:17:26","13/04/2021 11:17:29",48742,5,3598281,"5e3adfc595ff562fbdd130fa","Edge 89.0.774.75","encoding_b5",2,"SS5",36,512.495000002673,4,1,1,0,"motor_trial_cue","SS5",5,3,"rand","pet store.png","whale.png",3,4
"13/04/2021 15:17:30","13/04/2021 11:17:33",48742,5,3598281,"5e3adfc595ff562fbdd130fa","Edge 89.0.774.75","encoding_b5",2,"SS5",38,522.414999999455,1,1,1,0,"motor_trial_cue","SS5",5,3,"rand","pet store.png","crab.png",4,1
"13/04/2021 15:17:34","13/04/2021 11:17:37",48742,5,3598281,"5e3adfc595ff562fbdd130fa","Edge 89.0.774.75","encoding_b5",2,"SS5",40,772.449999996752,2,1,1,0,"motor_trial_cue","SS5",5,3,"rand","pet store.png","panda.png",5,2
"13/04/2021 15:17:38","13/04/2021 11:17:41",48742,5,3598281,"5e3adfc595ff562fbdd130fa","Edge 89.0.774.75","encoding_b5",2,"SS5",42,492.569999994885,4,1,1,0,"motor_trial_cue","SS5",5,3,"rand","pet store.png","shark.png",6,4
"13/04/2021 15:17:46","13/04/2021 11:17:49",48742,5,3598281,"5e3adfc595ff562fbdd130fa","Edge 89.0.774.75","encoding_b5",2,"SS5",46,653.169999997772,3,1,1,0,"motor_trial_cue","SS5",5,4,"rand","pet store.png","hermitcrab.png",1,3
"13/04/2021 15:17:50","13/04/2021 11:17:53",48742,5,3598281,"5e3adfc595ff562fbdd130fa","Edge 89.0.774.75","encoding_b5",2,"SS5",48,440.429999995104,4,1,1,0,"motor_trial_cue","SS5",5,4,"rand","pet store.png","bloodhound.png",2,4
"13/04/2021 15:17:54","13/04/2021 11:17:57",48742,5,3598281,"5e3adfc595ff562fbdd130fa","Edge 89.0.774.75","encoding_b5",2,"SS5",50,514.480000005278,2,1,1,0,"motor_trial_cue","SS5",5,4,"rand","pet store.png","cuttlefish.png",3,2
"13/04/2021 15:17:59","13/04/2021 11:18:01",48742,5,3598281,"5e3adfc595ff562fbdd130fa","Edge 89.0.774.75","encoding_b5",2,"SS5",52,498.780000001716,1,1,1,0,"motor_trial_cue","SS5",5,4,"rand","pet store.png","cow.png",4,1
"13/04/2021 15:18:02","13/04/2021 11:18:05",48742,5,3598281,"5e3adfc595ff562fbdd130fa","Edge 89.0.774.75","encoding_b5",2,"SS5",54,448.884999997972,4,1,1,0,"motor_trial_cue","SS5",5,4,"rand","pet store.png","crow.png",5,4
"13/04/2021 15:18:06","13/04/2021 11:18:09",48742,5,3598281,"5e3adfc595ff562fbdd130fa","Edge 89.0.774.75","encoding_b5",2,"SS5",56,512.020000001939,1,1,1,0,"motor_trial_cue","SS5",5,4,"rand","pet store.png","rhino.png",6,1
"13/04/2021 15:20:14","13/04/2021 11:20:17",48742,5,3598281,"5e3adfc595ff562fbdd130fa","Edge 89.0.774.75","encoding_b6",2,"SS5",4,889.555000001565,2,1,1,0,"motor_trial_cue","SS5",6,1,"rand","pet store.png","camel.png",1,2
"13/04/2021 15:20:19","13/04/2021 11:20:21",48742,5,3598281,"5e3adfc595ff562fbdd130fa","Edge 89.0.774.75","encoding_b6",2,"SS5",6,705.164999999397,1,1,1,0,"motor_trial_cue","SS5",6,1,"rand","pet store.png","bison.png",2,1
"13/04/2021 15:20:23","13/04/2021 11:20:25",48742,5,3598281,"5e3adfc595ff562fbdd130fa","Edge 89.0.774.75","encoding_b6",2,"SS5",8,713.540000004286,4,1,1,0,"motor_trial_cue","SS5",6,1,"rand","pet store.png","beetle.png",3,4
"13/04/2021 15:20:27","13/04/2021 11:20:30",48742,5,3598281,"5e3adfc595ff562fbdd130fa","Edge 89.0.774.75","encoding_b6",2,"SS5",10,888.310000002093,3,1,1,0,"motor_trial_cue","SS5",6,1,"rand","pet store.png","manatee.png",4,3
"13/04/2021 15:20:31","13/04/2021 11:20:34",48742,5,3598281,"5e3adfc595ff562fbdd130fa","Edge 89.0.774.75","encoding_b6",2,"SS5",12,485.415000002831,4,1,1,0,"motor_trial_cue","SS5",6,1,"rand","pet store.png","dragonfly.png",5,4
"13/04/2021 15:20:35","13/04/2021 11:20:38",48742,5,3598281,"5e3adfc595ff562fbdd130fa","Edge 89.0.774.75","encoding_b6",2,"SS5",14,546.385000001465,1,1,1,0,"motor_trial_cue","SS5",6,1,"rand","pet store.png","mantis.png",6,1
"13/04/2021 15:20:43","13/04/2021 11:20:46",48742,5,3598281,"5e3adfc595ff562fbdd130fa","Edge 89.0.774.75","encoding_b6",2,"SS5",18,612.19500000152,1,1,1,0,"motor_trial_mem","SS5",6,2,"pred","grocery store.png","garlic.png",1,1
"13/04/2021 15:20:48","13/04/2021 11:20:51",48742,5,3598281,"5e3adfc595ff562fbdd130fa","Edge 89.0.774.75","encoding_b6",2,"SS5",20,1226.38500000176,4,1,1,0,"motor_trial_mem","SS5",6,2,"pred","grocery store.png","donut.png",2,4
"13/04/2021 15:20:52","13/04/2021 11:20:55",48742,5,3598281,"5e3adfc595ff562fbdd130fa","Edge 89.0.774.75","encoding_b6",2,"SS5",22,448.644999996759,3,1,1,0,"motor_trial_mem","SS5",6,2,"pred","grocery store.png","jalapeno.png",3,3
"13/04/2021 15:20:56","13/04/2021 11:20:59",48742,5,3598281,"5e3adfc595ff562fbdd130fa","Edge 89.0.774.75","encoding_b6",2,"SS5",24,641.674999998941,4,1,1,0,"motor_trial_mem","SS5",6,2,"pred","grocery store.png","smores.png",4,4
"13/04/2021 15:21:01","13/04/2021 11:21:03",48742,5,3598281,"5e3adfc595ff562fbdd130fa","Edge 89.0.774.75","encoding_b6",2,"SS5",26,819.054999999935,2,1,1,0,"motor_trial_mem","SS5",6,2,"pred","grocery store.png","soup.png",5,2
"13/04/2021 15:21:05","13/04/2021 11:21:07",48742,5,3598281,"5e3adfc595ff562fbdd130fa","Edge 89.0.774.75","encoding_b6",2,"SS5",28,516.229999993811,3,1,1,0,"motor_trial_mem","SS5",6,2,"pred","grocery store.png","pineapple.png",6,3
"13/04/2021 15:21:13","13/04/2021 11:21:16",48742,5,3598281,"5e3adfc595ff562fbdd130fa","Edge 89.0.774.75","encoding_b6",2,"SS5",32,661.339999998745,4,1,1,0,"motor_trial_cue","SS5",6,3,"rand","pet store.png","ostrich.png",1,4
"13/04/2021 15:21:17","13/04/2021 11:21:20",48742,5,3598281,"5e3adfc595ff562fbdd130fa","Edge 89.0.774.75","encoding_b6",2,"SS5",34,652.415000004112,2,1,1,0,"motor_trial_cue","SS5",6,3,"rand","pet store.png","goose.png",2,2
"13/04/2021 15:21:21","13/04/2021 11:21:24",48742,5,3598281,"5e3adfc595ff562fbdd130fa","Edge 89.0.774.75","encoding_b6",2,"SS5",36,605.719999999565,3,1,1,0,"motor_trial_cue","SS5",6,3,"rand","pet store.png","emu.png",3,3
"13/04/2021 15:21:25","13/04/2021 11:21:28",48742,5,3598281,"5e3adfc595ff562fbdd130fa","Edge 89.0.774.75","encoding_b6",2,"SS5",38,476.769999993849,1,1,1,0,"motor_trial_cue","SS5",6,3,"rand","pet store.png","walrus.png",4,1
"13/04/2021 15:21:29","13/04/2021 11:21:32",48742,5,3598281,"5e3adfc595ff562fbdd130fa","Edge 89.0.774.75","encoding_b6",2,"SS5",40,599.885000003269,3,1,1,0,"motor_trial_cue","SS5",6,3,"rand","pet store.png","tiger.png",5,3
"13/04/2021 15:21:34","13/04/2021 11:21:36",48742,5,3598281,"5e3adfc595ff562fbdd130fa","Edge 89.0.774.75","encoding_b6",2,"SS5",42,762.890000005427,2,1,1,0,"motor_trial_cue","SS5",6,3,"rand","pet store.png","platypus.png",6,2
"13/04/2021 15:21:42","13/04/2021 11:21:45",48742,5,3598281,"5e3adfc595ff562fbdd130fa","Edge 89.0.774.75","encoding_b6",2,"SS5",46,1072.6100000029,1,1,1,0,"motor_trial_mem","SS5",6,4,"pred","grocery store.png","cake.png",1,1
"13/04/2021 15:21:46","13/04/2021 11:21:49",48742,5,3598281,"5e3adfc595ff562fbdd130fa","Edge 89.0.774.75","encoding_b6",2,"SS5",48,445.719999996072,4,1,1,0,"motor_trial_mem","SS5",6,4,"pred","grocery store.png","muffin.png",2,4
"13/04/2021 15:21:50","13/04/2021 11:21:53",48742,5,3598281,"5e3adfc595ff562fbdd130fa","Edge 89.0.774.75","encoding_b6",2,"SS5",50,491.625000002387,3,1,1,0,"motor_trial_mem","SS5",6,4,"pred","grocery store.png","pretzel.png",3,3
"13/04/2021 15:21:54","13/04/2021 11:21:57",48742,5,3598281,"5e3adfc595ff562fbdd130fa","Edge 89.0.774.75","encoding_b6",2,"SS5",52,456.304999999702,4,1,1,0,"motor_trial_mem","SS5",6,4,"pred","grocery store.png","edamame.png",4,4
"13/04/2021 15:21:59","13/04/2021 11:22:02",48742,5,3598281,"5e3adfc595ff562fbdd130fa","Edge 89.0.774.75","encoding_b6",2,"SS5",54,1307.40499999956,2,1,1,0,"motor_trial_mem","SS5",6,4,"pred","grocery store.png","salad.png",5,2
"13/04/2021 15:22:04","13/04/2021 11:22:07",48742,5,3598281,"5e3adfc595ff562fbdd130fa","Edge 89.0.774.75","encoding_b6",2,"SS5",56,1397.71499999915,3,1,1,0,"motor_trial_mem","SS5",6,4,"pred","grocery store.png","hummus.png",6,3
"13/04/2021 15:24:01","13/04/2021 11:24:03",48742,5,3598281,"5e3adfc595ff562fbdd130fa","Edge 89.0.774.75","encoding_b7",2,"SS5",4,567.415000004985,1,1,1,0,"motor_trial_mem","SS5",7,1,"pred","grocery store.png","grapes.png",1,1
"13/04/2021 15:24:06","13/04/2021 11:24:08",48742,5,3598281,"5e3adfc595ff562fbdd130fa","Edge 89.0.774.75","encoding_b7",2,"SS5",6,1422.35999999684,4,1,1,0,"motor_trial_mem","SS5",7,1,"pred","grocery store.png","asparagus.png",2,4
"13/04/2021 15:24:11","13/04/2021 11:24:13",48742,5,3598281,"5e3adfc595ff562fbdd130fa","Edge 89.0.774.75","encoding_b7",2,"SS5",8,1225.63000000082,2,1,0,0,"motor_trial_mem","SS5",7,1,"pred","grocery store.png","fortunecookie.png",3,3
"13/04/2021 15:24:16","13/04/2021 11:24:19",48742,5,3598281,"5e3adfc595ff562fbdd130fa","Edge 89.0.774.75","encoding_b7",2,"SS5",10,2291.27999999764,4,1,1,0,"motor_trial_mem","SS5",7,1,"pred","grocery store.png","milk.png",4,4
"13/04/2021 15:24:21","13/04/2021 11:24:24",48742,5,3598281,"5e3adfc595ff562fbdd130fa","Edge 89.0.774.75","encoding_b7",2,"SS5",12,1152.91499999876,2,1,1,0,"motor_trial_mem","SS5",7,1,"pred","grocery store.png","brusselsprouts.png",5,2
"13/04/2021 15:24:25","13/04/2021 11:24:28",48742,5,3598281,"5e3adfc595ff562fbdd130fa","Edge 89.0.774.75","encoding_b7",2,"SS5",14,850.420000002487,3,1,1,0,"motor_trial_mem","SS5",7,1,"pred","grocery store.png","icecreamsandwich.png",6,3
"13/04/2021 15:24:34","13/04/2021 11:24:36",48742,5,3598281,"5e3adfc595ff562fbdd130fa","Edge 89.0.774.75","encoding_b7",2,"SS5",18,783.860000003187,2,1,1,0,"motor_trial_cue","SS5",7,2,"rand","pet store.png","seahorse.png",1,2
"13/04/2021 15:24:38","13/04/2021 11:24:40",48742,5,3598281,"5e3adfc595ff562fbdd130fa","Edge 89.0.774.75","encoding_b7",2,"SS5",20,538.589999996475,3,1,1,0,"motor_trial_cue","SS5",7,2,"rand","pet store.png","horse.png",2,3
"13/04/2021 15:24:42","13/04/2021 11:24:45",48742,5,3598281,"5e3adfc595ff562fbdd130fa","Edge 89.0.774.75","encoding_b7",2,"SS5",22,694.929999997839,1,1,1,0,"motor_trial_cue","SS5",7,2,"rand","pet store.png","squid.png",3,1
"13/04/2021 15:24:46","13/04/2021 11:24:49",48742,5,3598281,"5e3adfc595ff562fbdd130fa","Edge 89.0.774.75","encoding_b7",2,"SS5",24,820.269999996526,4,1,1,0,"motor_trial_cue","SS5",7,2,"rand","pet store.png","cheetah.png",4,4
"13/04/2021 15:24:50","13/04/2021 11:24:53",48742,5,3598281,"5e3adfc595ff562fbdd130fa","Edge 89.0.774.75","encoding_b7",2,"SS5",26,545.660000003409,1,1,1,0,"motor_trial_cue","SS5",7,2,"rand","pet store.png","squirrel.png",5,1
"13/04/2021 15:24:54","13/04/2021 11:24:57",48742,5,3598281,"5e3adfc595ff562fbdd130fa","Edge 89.0.774.75","encoding_b7",2,"SS5",28,476.060000000871,3,1,1,0,"motor_trial_cue","SS5",7,2,"rand","pet store.png","lion.png",6,3
"13/04/2021 15:25:03","13/04/2021 11:25:05",48742,5,3598281,"5e3adfc595ff562fbdd130fa","Edge 89.0.774.75","encoding_b7",2,"SS5",32,745.034999999916,1,1,1,0,"motor_trial_mem","SS5",7,3,"pred","grocery store.png","bakedpotato.png",1,1
"13/04/2021 15:25:07","13/04/2021 11:25:10",48742,5,3598281,"5e3adfc595ff562fbdd130fa","Edge 89.0.774.75","encoding_b7",2,"SS5",34,768.749999995634,4,1,1,0,"motor_trial_mem","SS5",7,3,"pred","grocery store.png","cinnamon.png",2,4
"13/04/2021 15:25:12","13/04/2021 11:25:14",48742,5,3598281,"5e3adfc595ff562fbdd130fa","Edge 89.0.774.75","encoding_b7",2,"SS5",36,1285.17500000453,3,1,1,0,"motor_trial_mem","SS5",7,3,"pred","grocery store.png","chocolate.png",3,3
"13/04/2021 15:25:16","13/04/2021 11:25:19",48742,5,3598281,"5e3adfc595ff562fbdd130fa","Edge 89.0.774.75","encoding_b7",2,"SS5",38,1023.91999999963,4,1,1,0,"motor_trial_mem","SS5",7,3,"pred","grocery store.png","artichoke.png",4,4
"13/04/2021 15:25:21","13/04/2021 11:25:23",48742,5,3598281,"5e3adfc595ff562fbdd130fa","Edge 89.0.774.75","encoding_b7",2,"SS5",40,771.200000002864,2,1,1,0,"motor_trial_mem","SS5",7,3,"pred","grocery store.png","cherries.png",5,2
"13/04/2021 15:25:26","13/04/2021 11:25:29",48742,5,3598281,"5e3adfc595ff562fbdd130fa","Edge 89.0.774.75","encoding_b7",2,"SS5",42,1940.65499999851,3,1,1,0,"motor_trial_mem","SS5",7,3,"pred","grocery store.png","pork.png",6,3
"13/04/2021 15:25:34","13/04/2021 11:25:37",48742,5,3598281,"5e3adfc595ff562fbdd130fa","Edge 89.0.774.75","encoding_b7",2,"SS5",46,784.330000002228,3,1,1,0,"motor_trial_cue","SS5",7,4,"rand","pet store.png","koala.png",1,3
"13/04/2021 15:25:39","13/04/2021 11:25:41",48742,5,3598281,"5e3adfc595ff562fbdd130fa","Edge 89.0.774.75","encoding_b7",2,"SS5",48,558.635000001232,1,1,1,0,"motor_trial_cue","SS5",7,4,"rand","pet store.png","grasshopper.png",2,1
"13/04/2021 15:25:43","13/04/2021 11:25:45",48742,5,3598281,"5e3adfc595ff562fbdd130fa","Edge 89.0.774.75","encoding_b7",2,"SS5",50,595.885000002454,4,1,1,0,"motor_trial_cue","SS5",7,4,"rand","pet store.png","kangaroo.png",3,4
"13/04/2021 15:25:47","13/04/2021 11:25:49",48742,5,3598281,"5e3adfc595ff562fbdd130fa","Edge 89.0.774.75","encoding_b7",2,"SS5",52,568.605000000389,2,1,1,0,"motor_trial_cue","SS5",7,4,"rand","pet store.png","surgeonfish.png",4,2
"13/04/2021 15:25:51","13/04/2021 11:25:54",48742,5,3598281,"5e3adfc595ff562fbdd130fa","Edge 89.0.774.75","encoding_b7",2,"SS5",54,740.089999999327,4,1,1,0,"motor_trial_cue","SS5",7,4,"rand","pet store.png","tortoise.png",5,4
"13/04/2021 15:25:55","13/04/2021 11:25:58",48742,5,3598281,"5e3adfc595ff562fbdd130fa","Edge 89.0.774.75","encoding_b7",2,"SS5",56,445.384999999078,1,1,1,0,"motor_trial_cue","SS5",7,4,"rand","pet store.png","butterfly.png",6,1
"13/04/2021 15:27:47","13/04/2021 11:27:50",48742,5,3598281,"5e3adfc595ff562fbdd130fa","Edge 89.0.774.75","encoding_b8",2,"SS5",4,616.695000004256,3,1,1,0,"motor_trial_cue","SS5",8,1,"rand","pet store.png","pelican.png",1,3
"13/04/2021 15:27:51","13/04/2021 11:27:54",48742,5,3598281,"5e3adfc595ff562fbdd130fa","Edge 89.0.774.75","encoding_b8",2,"SS5",6,513.439999995171,2,1,1,0,"motor_trial_cue","SS5",8,1,"rand","pet store.png","toad.png",2,2
"13/04/2021 15:27:55","13/04/2021 11:27:58",48742,5,3598281,"5e3adfc595ff562fbdd130fa","Edge 89.0.774.75","encoding_b8",2,"SS5",8,496.145000004617,4,1,1,0,"motor_trial_cue","SS5",8,1,"rand","pet store.png","flamingo.png",3,4
"13/04/2021 15:28:00","13/04/2021 11:28:02",48742,5,3598281,"5e3adfc595ff562fbdd130fa","Edge 89.0.774.75","encoding_b8",2,"SS5",10,752.509999998438,1,1,1,0,"motor_trial_cue","SS5",8,1,"rand","pet store.png","snail.png",4,1
"13/04/2021 15:28:04","13/04/2021 11:28:06",48742,5,3598281,"5e3adfc595ff562fbdd130fa","Edge 89.0.774.75","encoding_b8",2,"SS5",12,489.995000003546,4,1,1,0,"motor_trial_cue","SS5",8,1,"rand","pet store.png","iguana.png",5,4
"13/04/2021 15:28:07","13/04/2021 11:28:10",48742,5,3598281,"5e3adfc595ff562fbdd130fa","Edge 89.0.774.75","encoding_b8",2,"SS5",14,385.75999999739,2,1,1,0,"motor_trial_cue","SS5",8,1,"rand","pet store.png","hummingbird.png",6,2
"13/04/2021 15:28:16","13/04/2021 11:28:18",48742,5,3598281,"5e3adfc595ff562fbdd130fa","Edge 89.0.774.75","encoding_b8",2,"SS5",18,648.389999994833,3,1,1,0,"motor_trial_cue","SS5",8,2,"rand","pet store.png","toucan.png",1,3
"13/04/2021 15:28:20","13/04/2021 11:28:22",48742,5,3598281,"5e3adfc595ff562fbdd130fa","Edge 89.0.774.75","encoding_b8",2,"SS5",20,444.400000000314,4,1,1,0,"motor_trial_cue","SS5",8,2,"rand","pet store.png","pangolin.png",2,4
"13/04/2021 15:28:24","13/04/2021 11:28:26",48742,5,3598281,"5e3adfc595ff562fbdd130fa","Edge 89.0.774.75","encoding_b8",2,"SS5",22,454.760000000533,2,1,1,0,"motor_trial_cue","SS5",8,2,"rand","pet store.png","chimp.png",3,2
"13/04/2021 15:28:28","13/04/2021 11:28:30",48742,5,3598281,"5e3adfc595ff562fbdd130fa","Edge 89.0.774.75","encoding_b8",2,"SS5",24,422.474999999395,4,1,1,0,"motor_trial_cue","SS5",8,2,"rand","pet store.png","goat.png",4,4
"13/04/2021 15:28:32","13/04/2021 11:28:34",48742,5,3598281,"5e3adfc595ff562fbdd130fa","Edge 89.0.774.75","encoding_b8",2,"SS5",26,457.965000001423,1,1,1,0,"motor_trial_cue","SS5",8,2,"rand","pet store.png","penguin.png",5,1
"13/04/2021 15:28:36","13/04/2021 11:28:38",48742,5,3598281,"5e3adfc595ff562fbdd130fa","Edge 89.0.774.75","encoding_b8",2,"SS5",28,471.384999997099,2,1,1,0,"motor_trial_cue","SS5",8,2,"rand","pet store.png","goldenretriever.png",6,2
"13/04/2021 15:28:44","13/04/2021 11:28:46",48742,5,3598281,"5e3adfc595ff562fbdd130fa","Edge 89.0.774.75","encoding_b8",2,"SS5",32,746.319999998377,1,1,1,0,"motor_trial_mem","SS5",8,3,"pred","grocery store.png","carrots.png",1,1
"13/04/2021 15:28:48","13/04/2021 11:28:51",48742,5,3598281,"5e3adfc595ff562fbdd130fa","Edge 89.0.774.75","encoding_b8",2,"SS5",34,693.15999999526,4,1,1,0,"motor_trial_mem","SS5",8,3,"pred","grocery store.png","waffle.png",2,4
"13/04/2021 15:28:53","13/04/2021 11:28:55",48742,5,3598281,"5e3adfc595ff562fbdd130fa","Edge 89.0.774.75","encoding_b8",2,"SS5",36,1062.61500000255,3,1,1,0,"motor_trial_mem","SS5",8,3,"pred","grocery store.png","pomegranate.png",3,3
"13/04/2021 15:28:57","13/04/2021 11:28:59",48742,5,3598281,"5e3adfc595ff562fbdd130fa","Edge 89.0.774.75","encoding_b8",2,"SS5",38,656.114999997953,4,1,1,0,"motor_trial_mem","SS5",8,3,"pred","grocery store.png","potatochips.png",4,4
"13/04/2021 15:29:01","13/04/2021 11:29:04",48742,5,3598281,"5e3adfc595ff562fbdd130fa","Edge 89.0.774.75","encoding_b8",2,"SS5",40,998.429999999644,2,1,1,0,"motor_trial_mem","SS5",8,3,"pred","grocery store.png","oliveoil.png",5,2
"13/04/2021 15:29:05","13/04/2021 11:29:08",48742,5,3598281,"5e3adfc595ff562fbdd130fa","Edge 89.0.774.75","encoding_b8",2,"SS5",42,636.054999995395,3,1,1,0,"motor_trial_mem","SS5",8,3,"pred","grocery store.png","honeycomb.png",6,3
"13/04/2021 15:29:14","13/04/2021 11:29:16",48742,5,3598281,"5e3adfc595ff562fbdd130fa","Edge 89.0.774.75","encoding_b8",2,"SS5",46,566.21499999892,1,1,1,0,"motor_trial_mem","SS5",8,4,"pred","grocery store.png","celery.png",1,1
"13/04/2021 15:29:18","13/04/2021 11:29:20",48742,5,3598281,"5e3adfc595ff562fbdd130fa","Edge 89.0.774.75","encoding_b8",2,"SS5",48,416.214999997464,4,1,1,0,"motor_trial_mem","SS5",8,4,"pred","grocery store.png","pie.png",2,4
"13/04/2021 15:29:22","13/04/2021 11:29:24",48742,5,3598281,"5e3adfc595ff562fbdd130fa","Edge 89.0.774.75","encoding_b8",2,"SS5",50,660.074999999779,3,1,1,0,"motor_trial_mem","SS5",8,4,"pred","grocery store.png","cupcake.png",3,3
"13/04/2021 15:29:26","13/04/2021 11:29:29",48742,5,3598281,"5e3adfc595ff562fbdd130fa","Edge 89.0.774.75","encoding_b8",2,"SS5",52,654.925000002549,4,1,1,0,"motor_trial_mem","SS5",8,4,"pred","grocery store.png","hotdog.png",4,4
"13/04/2021 15:29:30","13/04/2021 11:29:33",48742,5,3598281,"5e3adfc595ff562fbdd130fa","Edge 89.0.774.75","encoding_b8",2,"SS5",54,656.429999995453,2,1,1,0,"motor_trial_mem","SS5",8,4,"pred","grocery store.png","starfruit.png",5,2
"13/04/2021 15:29:34","13/04/2021 11:29:36",48742,5,3598281,"5e3adfc595ff562fbdd130fa","Edge 89.0.774.75","encoding_b8",2,"SS5",56,115.64499999804,3,1,1,0,"motor_trial_mem","SS5",8,4,"pred","grocery store.png","raspberries.png",6,3
"13/04/2021 15:43:19","13/04/2021 08:43:19",48742,5,3598452,"5f556bd46e6c4c93a5a90c77","Chrome 89.0.4389.114","encoding_b1",4,"SS8",4,3462.95499999542,2,1,1,0,"motor_trial_cue","SS8",1,1,"rand","grocery store.png","butter.png",1,2
"13/04/2021 15:43:24","13/04/2021 08:43:24",48742,5,3598452,"5f556bd46e6c4c93a5a90c77","Chrome 89.0.4389.114","encoding_b1",4,"SS8",6,1400.48999999999,4,1,1,0,"motor_trial_cue","SS8",1,1,"rand","grocery store.png","coffee.png",2,4
"13/04/2021 15:43:29","13/04/2021 08:43:29",48742,5,3598452,"5f556bd46e6c4c93a5a90c77","Chrome 89.0.4389.114","encoding_b1",4,"SS8",8,1250.95000000147,3,1,1,0,"motor_trial_cue","SS8",1,1,"rand","grocery store.png","mushrooms.png",3,3
"13/04/2021 15:43:34","13/04/2021 08:43:34",48742,5,3598452,"5f556bd46e6c4c93a5a90c77","Chrome 89.0.4389.114","encoding_b1",4,"SS8",10,2231.53000000457,4,1,1,0,"motor_trial_cue","SS8",1,1,"rand","grocery store.png","bread.png",4,4
"13/04/2021 15:43:39","13/04/2021 08:43:39",48742,5,3598452,"5f556bd46e6c4c93a5a90c77","Chrome 89.0.4389.114","encoding_b1",4,"SS8",12,1325.27000000118,1,1,1,0,"motor_trial_cue","SS8",1,1,"rand","grocery store.png","granola.png",5,1
"13/04/2021 15:43:45","13/04/2021 08:43:44",48742,5,3598452,"5f556bd46e6c4c93a5a90c77","Chrome 89.0.4389.114","encoding_b1",4,"SS8",14,1721.81000000273,3,1,1,0,"motor_trial_cue","SS8",1,1,"rand","grocery store.png","cupcake.png",6,3
"13/04/2021 15:44:03","13/04/2021 08:44:02",48742,5,3598452,"5f556bd46e6c4c93a5a90c77","Chrome 89.0.4389.114","encoding_b1",4,"SS8",20,1068.08499999897,4,1,0,0,"motor_trial_mem","SS8",1,2,"pred","pet store.png","octopus.png",2,2
"13/04/2021 15:44:17","13/04/2021 08:44:17",48742,5,3598452,"5f556bd46e6c4c93a5a90c77","Chrome 89.0.4389.114","encoding_b1",4,"SS8",24,1155.104999998,2,1,1,0,"motor_trial_mem","SS8",1,2,"pred","pet store.png","panther.png",4,2
"13/04/2021 15:44:22","13/04/2021 08:44:22",48742,5,3598452,"5f556bd46e6c4c93a5a90c77","Chrome 89.0.4389.114","encoding_b1",4,"SS8",26,1331.51499999803,4,1,0,0,"motor_trial_mem","SS8",1,2,"pred","pet store.png","whale.png",5,1
"13/04/2021 15:44:50","13/04/2021 08:44:50",48742,5,3598452,"5f556bd46e6c4c93a5a90c77","Chrome 89.0.4389.114","encoding_b1",4,"SS8",34,2089.56500000204,3,1,1,0,"motor_trial_cue","SS8",1,3,"rand","grocery store.png","jalapeno.png",2,3
"13/04/2021 15:44:55","13/04/2021 08:44:55",48742,5,3598452,"5f556bd46e6c4c93a5a90c77","Chrome 89.0.4389.114","encoding_b1",4,"SS8",36,1374.61500000063,1,1,1,0,"motor_trial_cue","SS8",1,3,"rand","grocery store.png","raspberries.png",3,1
"13/04/2021 15:45:02","13/04/2021 08:45:02",48742,5,3598452,"5f556bd46e6c4c93a5a90c77","Chrome 89.0.4389.114","encoding_b1",4,"SS8",38,3045.1649999959,2,1,1,0,"motor_trial_cue","SS8",1,3,"rand","grocery store.png","pineapple.png",4,2
"13/04/2021 15:45:07","13/04/2021 08:45:06",48742,5,3598452,"5f556bd46e6c4c93a5a90c77","Chrome 89.0.4389.114","encoding_b1",4,"SS8",40,1416.21000000305,1,1,1,0,"motor_trial_cue","SS8",1,3,"rand","grocery store.png","bakedpotato.png",5,1
"13/04/2021 15:45:12","13/04/2021 08:45:12",48742,5,3598452,"5f556bd46e6c4c93a5a90c77","Chrome 89.0.4389.114","encoding_b1",4,"SS8",42,1682.93000000267,3,1,1,0,"motor_trial_cue","SS8",1,3,"rand","grocery store.png","fortunecookie.png",6,3
"13/04/2021 15:45:25","13/04/2021 08:45:25",48742,5,3598452,"5f556bd46e6c4c93a5a90c77","Chrome 89.0.4389.114","encoding_b1",4,"SS8",46,5318.75000000582,4,1,0,0,"motor_trial_mem","SS8",1,4,"pred","pet store.png","turkey.png",1,3
"13/04/2021 15:45:39","13/04/2021 08:45:39",48742,5,3598452,"5f556bd46e6c4c93a5a90c77","Chrome 89.0.4389.114","encoding_b1",4,"SS8",50,1466.20499999699,1,1,0,0,"motor_trial_mem","SS8",1,4,"pred","pet store.png","toucan.png",3,4
"13/04/2021 15:45:45","13/04/2021 08:45:45",48742,5,3598452,"5f556bd46e6c4c93a5a90c77","Chrome 89.0.4389.114","encoding_b1",4,"SS8",52,2503.55500000296,2,1,1,0,"motor_trial_mem","SS8",1,4,"pred","pet store.png","canadiangoose.png",4,2
"13/04/2021 15:45:50","13/04/2021 08:45:50",48742,5,3598452,"5f556bd46e6c4c93a5a90c77","Chrome 89.0.4389.114","encoding_b1",4,"SS8",54,1058.94499999704,1,1,1,0,"motor_trial_mem","SS8",1,4,"pred","pet store.png","pig.png",5,1
"13/04/2021 15:45:54","13/04/2021 08:45:54",48742,5,3598452,"5f556bd46e6c4c93a5a90c77","Chrome 89.0.4389.114","encoding_b1",4,"SS8",56,825.26499999949,3,1,0,0,"motor_trial_mem","SS8",1,4,"pred","pet store.png","cheetah.png",6,4
"13/04/2021 15:50:41","13/04/2021 08:50:40",48742,5,3598452,"5f556bd46e6c4c93a5a90c77","Chrome 89.0.4389.114","encoding_b2",3,"SS8",4,2278.00500000012,2,1,1,0,"motor_trial_cue","SS8",2,1,"rand","grocery store.png","caramelapple.png",1,2
"13/04/2021 15:50:46","13/04/2021 08:50:46",48742,5,3598452,"5f556bd46e6c4c93a5a90c77","Chrome 89.0.4389.114","encoding_b2",3,"SS8",6,2175.66000000079,4,1,1,0,"motor_trial_cue","SS8",2,1,"rand","grocery store.png","walnuts.png",2,4
"13/04/2021 15:50:52","13/04/2021 08:50:52",48742,5,3598452,"5f556bd46e6c4c93a5a90c77","Chrome 89.0.4389.114","encoding_b2",3,"SS8",8,2449.08999999461,1,1,1,0,"motor_trial_cue","SS8",2,1,"rand","grocery store.png","gummybears.png",3,1
"13/04/2021 15:50:57","13/04/2021 08:50:57",48742,5,3598452,"5f556bd46e6c4c93a5a90c77","Chrome 89.0.4389.114","encoding_b2",3,"SS8",10,1667.43500000302,3,1,1,0,"motor_trial_cue","SS8",2,1,"rand","grocery store.png","avocado.png",4,3
"13/04/2021 15:51:03","13/04/2021 08:51:03",48742,5,3598452,"5f556bd46e6c4c93a5a90c77","Chrome 89.0.4389.114","encoding_b2",3,"SS8",12,2241.72000000544,1,1,1,0,"motor_trial_cue","SS8",2,1,"rand","grocery store.png","garlic.png",5,1
"13/04/2021 15:51:08","13/04/2021 08:51:08",48742,5,3598452,"5f556bd46e6c4c93a5a90c77","Chrome 89.0.4389.114","encoding_b2",3,"SS8",14,1411.72999999981,4,1,1,0,"motor_trial_cue","SS8",2,1,"rand","grocery store.png","cabbage.png",6,4
"13/04/2021 15:51:17","13/04/2021 08:51:17",48742,5,3598452,"5f556bd46e6c4c93a5a90c77","Chrome 89.0.4389.114","encoding_b2",3,"SS8",18,1682.87000000419,2,1,1,0,"motor_trial_cue","SS8",2,2,"rand","grocery store.png","edamame.png",1,2
"13/04/2021 15:51:26","13/04/2021 08:51:26",48742,5,3598452,"5f556bd46e6c4c93a5a90c77","Chrome 89.0.4389.114","encoding_b2",3,"SS8",20,4930.67000000156,1,1,1,0,"motor_trial_cue","SS8",2,2,"rand","grocery store.png","sandwich.png",2,1
"13/04/2021 15:51:30","13/04/2021 08:51:30",48742,5,3598452,"5f556bd46e6c4c93a5a90c77","Chrome 89.0.4389.114","encoding_b2",3,"SS8",22,1206.46000000124,4,1,1,0,"motor_trial_cue","SS8",2,2,"rand","grocery store.png","cinnamon.png",3,4
"13/04/2021 15:51:36","13/04/2021 08:51:36",48742,5,3598452,"5f556bd46e6c4c93a5a90c77","Chrome 89.0.4389.114","encoding_b2",3,"SS8",24,2361.46500000177,3,1,1,0,"motor_trial_cue","SS8",2,2,"rand","grocery store.png","cake.png",4,3
"13/04/2021 15:51:42","13/04/2021 08:51:42",48742,5,3598452,"5f556bd46e6c4c93a5a90c77","Chrome 89.0.4389.114","encoding_b2",3,"SS8",26,1739.90000000049,1,1,1,0,"motor_trial_cue","SS8",2,2,"rand","grocery store.png","nachos.png",5,1
"13/04/2021 15:51:49","13/04/2021 08:51:49",48742,5,3598452,"5f556bd46e6c4c93a5a90c77","Chrome 89.0.4389.114","encoding_b2",3,"SS8",28,4165.86500000267,3,1,1,0,"motor_trial_cue","SS8",2,2,"rand","grocery store.png","egg.png",6,3
"13/04/2021 15:52:10","13/04/2021 08:52:10",48742,5,3598452,"5f556bd46e6c4c93a5a90c77","Chrome 89.0.4389.114","encoding_b2",3,"SS8",34,3369.61499999597,3,1,0,0,"motor_trial_mem","SS8",2,3,"pred","pet store.png","crow.png",2,2
"13/04/2021 15:52:16","13/04/2021 08:52:16",48742,5,3598452,"5f556bd46e6c4c93a5a90c77","Chrome 89.0.4389.114","encoding_b2",3,"SS8",36,2476.26000000309,1,1,0,0,"motor_trial_mem","SS8",2,3,"pred","pet store.png","bat.png",3,4
"13/04/2021 15:52:21","13/04/2021 08:52:20",48742,5,3598452,"5f556bd46e6c4c93a5a90c77","Chrome 89.0.4389.114","encoding_b2",3,"SS8",38,1308.51500000426,4,1,0,0,"motor_trial_mem","SS8",2,3,"pred","pet store.png","ladybug.png",4,2
"13/04/2021 15:52:25","13/04/2021 08:52:25",48742,5,3598452,"5f556bd46e6c4c93a5a90c77","Chrome 89.0.4389.114","encoding_b2",3,"SS8",40,1468.65999999864,3,1,0,0,"motor_trial_mem","SS8",2,3,"pred","pet store.png","turtle.png",5,1
"13/04/2021 15:52:32","13/04/2021 08:52:32",48742,5,3598452,"5f556bd46e6c4c93a5a90c77","Chrome 89.0.4389.114","encoding_b2",3,"SS8",42,3078.125,1,1,0,0,"motor_trial_mem","SS8",2,3,"pred","pet store.png","bettafish.png",6,4
"13/04/2021 15:52:50","13/04/2021 08:52:50",48742,5,3598452,"5f556bd46e6c4c93a5a90c77","Chrome 89.0.4389.114","encoding_b2",3,"SS8",48,680.499999994936,3,1,0,0,"motor_trial_mem","SS8",2,4,"pred","pet store.png","goldenretriever.png",2,2
"13/04/2021 15:52:56","13/04/2021 08:52:56",48742,5,3598452,"5f556bd46e6c4c93a5a90c77","Chrome 89.0.4389.114","encoding_b2",3,"SS8",50,2986.62999999942,2,1,0,0,"motor_trial_mem","SS8",2,4,"pred","pet store.png","stingray.png",3,4
"13/04/2021 15:53:01","13/04/2021 08:53:01",48742,5,3598452,"5f556bd46e6c4c93a5a90c77","Chrome 89.0.4389.114","encoding_b2",3,"SS8",52,1078.95999999892,4,1,0,0,"motor_trial_mem","SS8",2,4,"pred","pet store.png","wolf.png",4,2
"13/04/2021 15:53:05","13/04/2021 08:53:05",48742,5,3598452,"5f556bd46e6c4c93a5a90c77","Chrome 89.0.4389.114","encoding_b2",3,"SS8",54,329.344999998284,3,1,0,0,"motor_trial_mem","SS8",2,4,"pred","pet store.png","gorilla.png",5,1
"13/04/2021 15:53:09","13/04/2021 08:53:09",48742,5,3598452,"5f556bd46e6c4c93a5a90c77","Chrome 89.0.4389.114","encoding_b2",3,"SS8",56,1281.18499999982,2,1,0,0,"motor_trial_mem","SS8",2,4,"pred","pet store.png","bloodhound.png",6,4
"13/04/2021 15:57:37","13/04/2021 08:57:37",48742,5,3598452,"5f556bd46e6c4c93a5a90c77","Chrome 89.0.4389.114","encoding_b3",2,"SS8",4,5533.26000000379,2,1,1,0,"motor_trial_cue","SS8",3,1,"rand","grocery store.png","rice.png",1,2
"13/04/2021 15:57:45","13/04/2021 08:57:44",48742,5,3598452,"5f556bd46e6c4c93a5a90c77","Chrome 89.0.4389.114","encoding_b3",2,"SS8",6,4157.22000000096,1,1,1,0,"motor_trial_cue","SS8",3,1,"rand","grocery store.png","acaibowl.png",2,1
"13/04/2021 15:57:50","13/04/2021 08:57:50",48742,5,3598452,"5f556bd46e6c4c93a5a90c77","Chrome 89.0.4389.114","encoding_b3",2,"SS8",8,2020.40499999566,3,1,1,0,"motor_trial_cue","SS8",3,1,"rand","grocery store.png","cupnoodle.png",3,3
"13/04/2021 15:57:56","13/04/2021 08:57:56",48742,5,3598452,"5f556bd46e6c4c93a5a90c77","Chrome 89.0.4389.114","encoding_b3",2,"SS8",10,2332.47500000289,1,1,1,0,"motor_trial_cue","SS8",3,1,"rand","grocery store.png","guava.png",4,1
"13/04/2021 15:58:02","13/04/2021 08:58:02",48742,5,3598452,"5f556bd46e6c4c93a5a90c77","Chrome 89.0.4389.114","encoding_b3",2,"SS8",12,2537.24499999953,4,1,1,0,"motor_trial_cue","SS8",3,1,"rand","grocery store.png","pomegranate.png",5,4
"13/04/2021 15:58:08","13/04/2021 08:58:07",48742,5,3598452,"5f556bd46e6c4c93a5a90c77","Chrome 89.0.4389.114","encoding_b3",2,"SS8",14,2234.72500000207,3,1,1,0,"motor_trial_cue","SS8",3,1,"rand","grocery store.png","ramen.png",6,3
"13/04/2021 15:58:27","13/04/2021 08:58:27",48742,5,3598452,"5f556bd46e6c4c93a5a90c77","Chrome 89.0.4389.114","encoding_b3",2,"SS8",20,2313.40500000078,3,1,0,0,"motor_trial_cue","SS8",3,2,"rand","grocery store.png","croissant.png",2,1
"13/04/2021 15:58:32","13/04/2021 08:58:32",48742,5,3598452,"5f556bd46e6c4c93a5a90c77","Chrome 89.0.4389.114","encoding_b3",2,"SS8",22,1278.61499999563,2,1,0,0,"motor_trial_cue","SS8",3,2,"rand","grocery store.png","cheese.png",3,4
"13/04/2021 15:58:37","13/04/2021 08:58:37",48742,5,3598452,"5f556bd46e6c4c93a5a90c77","Chrome 89.0.4389.114","encoding_b3",2,"SS8",24,1640.66999999341,3,1,1,0,"motor_trial_cue","SS8",3,2,"rand","grocery store.png","onion.png",4,3
"13/04/2021 15:58:42","13/04/2021 08:58:42",48742,5,3598452,"5f556bd46e6c4c93a5a90c77","Chrome 89.0.4389.114","encoding_b3",2,"SS8",26,2073.64999999845,4,1,1,0,"motor_trial_cue","SS8",3,2,"rand","grocery store.png","clams.png",5,4
"13/04/2021 15:58:48","13/04/2021 08:58:48",48742,5,3598452,"5f556bd46e6c4c93a5a90c77","Chrome 89.0.4389.114","encoding_b3",2,"SS8",28,1720.29000000475,1,1,1,0,"motor_trial_cue","SS8",3,2,"rand","grocery store.png","popcorn.png",6,1
"13/04/2021 15:59:10","13/04/2021 08:59:10",48742,5,3598452,"5f556bd46e6c4c93a5a90c77","Chrome 89.0.4389.114","encoding_b3",2,"SS8",34,5413.28000000067,3,1,0,0,"motor_trial_mem","SS8",3,3,"pred","pet store.png","hammerheadshark.png",2,2
"13/04/2021 15:59:17","13/04/2021 08:59:17",48742,5,3598452,"5f556bd46e6c4c93a5a90c77","Chrome 89.0.4389.114","encoding_b3",2,"SS8",36,3249.95499999932,1,1,0,0,"motor_trial_mem","SS8",3,3,"pred","pet store.png","horse.png",3,4
"13/04/2021 15:59:23","13/04/2021 08:59:23",48742,5,3598452,"5f556bd46e6c4c93a5a90c77","Chrome 89.0.4389.114","encoding_b3",2,"SS8",38,3029.03000000515,4,1,0,0,"motor_trial_mem","SS8",3,3,"pred","pet store.png","goose.png",4,2
"13/04/2021 15:59:27","13/04/2021 08:59:27",48742,5,3598452,"5f556bd46e6c4c93a5a90c77","Chrome 89.0.4389.114","encoding_b3",2,"SS8",40,1.41499999881489,4,1,0,0,"motor_trial_mem","SS8",3,3,"pred","pet store.png","pelican.png",5,1
"13/04/2021 15:59:56","13/04/2021 08:59:56",48742,5,3598452,"5f556bd46e6c4c93a5a90c77","Chrome 89.0.4389.114","encoding_b3",2,"SS8",48,2442.36999999703,4,1,0,0,"motor_trial_mem","SS8",3,4,"pred","pet store.png","platypus.png",2,2
"13/04/2021 16:00:03","13/04/2021 09:00:03",48742,5,3598452,"5f556bd46e6c4c93a5a90c77","Chrome 89.0.4389.114","encoding_b3",2,"SS8",50,3352.57500000444,3,1,0,0,"motor_trial_mem","SS8",3,4,"pred","pet store.png","rat.png",3,4
"13/04/2021 16:00:07","13/04/2021 09:00:07",48742,5,3598452,"5f556bd46e6c4c93a5a90c77","Chrome 89.0.4389.114","encoding_b3",2,"SS8",52,987.900000000081,1,1,0,0,"motor_trial_mem","SS8",3,4,"pred","pet store.png","zebra.png",4,2
"13/04/2021 16:00:11","13/04/2021 09:00:11",48742,5,3598452,"5f556bd46e6c4c93a5a90c77","Chrome 89.0.4389.114","encoding_b3",2,"SS8",54,480.074999999488,2,1,0,0,"motor_trial_mem","SS8",3,4,"pred","pet store.png","elephant.png",5,1
"13/04/2021 16:00:16","13/04/2021 09:00:16",48742,5,3598452,"5f556bd46e6c4c93a5a90c77","Chrome 89.0.4389.114","encoding_b3",2,"SS8",56,899.004999999306,4,1,1,0,"motor_trial_mem","SS8",3,4,"pred","pet store.png","butterfly.png",6,4
"13/04/2021 16:02:26","13/04/2021 09:02:26",48742,5,3598452,"5f556bd46e6c4c93a5a90c77","Chrome 89.0.4389.114","encoding_b4",2,"SS8",4,5501.86000000394,4,1,0,0,"motor_trial_mem","SS8",4,1,"pred","pet store.png","eagle.png",1,3
"13/04/2021 16:02:31","13/04/2021 09:02:30",48742,5,3598452,"5f556bd46e6c4c93a5a90c77","Chrome 89.0.4389.114","encoding_b4",2,"SS8",6,1036.64500000014,2,1,1,0,"motor_trial_mem","SS8",4,1,"pred","pet store.png","squid.png",2,2
"13/04/2021 16:02:35","13/04/2021 09:02:35",48742,5,3598452,"5f556bd46e6c4c93a5a90c77","Chrome 89.0.4389.114","encoding_b4",2,"SS8",8,828.459999996994,3,1,0,0,"motor_trial_mem","SS8",4,1,"pred","pet store.png","mantis.png",3,4
"13/04/2021 16:02:39","13/04/2021 09:02:39",48742,5,3598452,"5f556bd46e6c4c93a5a90c77","Chrome 89.0.4389.114","encoding_b4",2,"SS8",10,1030.29499999684,1,1,0,0,"motor_trial_mem","SS8",4,1,"pred","pet store.png","deer.png",4,2
"13/04/2021 16:02:44","13/04/2021 09:02:43",48742,5,3598452,"5f556bd46e6c4c93a5a90c77","Chrome 89.0.4389.114","encoding_b4",2,"SS8",12,789.355000000796,4,1,0,0,"motor_trial_mem","SS8",4,1,"pred","pet store.png","kangaroo.png",5,1
"13/04/2021 16:02:48","13/04/2021 09:02:48",48742,5,3598452,"5f556bd46e6c4c93a5a90c77","Chrome 89.0.4389.114","encoding_b4",2,"SS8",14,650.659999999334,2,1,0,0,"motor_trial_mem","SS8",4,1,"pred","pet store.png","penguin.png",6,4
"13/04/2021 16:02:59","13/04/2021 09:02:59",48742,5,3598452,"5f556bd46e6c4c93a5a90c77","Chrome 89.0.4389.114","encoding_b4",2,"SS8",18,3434.65999999898,4,1,0,0,"motor_trial_mem","SS8",4,2,"pred","pet store.png","shark.png",1,3
"13/04/2021 16:03:04","13/04/2021 09:03:03",48742,5,3598452,"5f556bd46e6c4c93a5a90c77","Chrome 89.0.4389.114","encoding_b4",2,"SS8",20,1300.18999999447,2,1,1,0,"motor_trial_mem","SS8",4,2,"pred","pet store.png","manatee.png",2,2
"13/04/2021 16:03:07","13/04/2021 09:03:07",48742,5,3598452,"5f556bd46e6c4c93a5a90c77","Chrome 89.0.4389.114","encoding_b4",2,"SS8",22,81.6300000005867,3,1,0,0,"motor_trial_mem","SS8",4,2,"pred","pet store.png","toad.png",3,4
"13/04/2021 16:03:11","13/04/2021 09:03:11",48742,5,3598452,"5f556bd46e6c4c93a5a90c77","Chrome 89.0.4389.114","encoding_b4",2,"SS8",24,777.190000000701,4,1,0,0,"motor_trial_mem","SS8",4,2,"pred","pet store.png","bison.png",4,2
"13/04/2021 16:03:16","13/04/2021 09:03:16",48742,5,3598452,"5f556bd46e6c4c93a5a90c77","Chrome 89.0.4389.114","encoding_b4",2,"SS8",26,979.549999996379,4,1,0,0,"motor_trial_mem","SS8",4,2,"pred","pet store.png","llama.png",5,1
"13/04/2021 16:03:20","13/04/2021 09:03:20",48742,5,3598452,"5f556bd46e6c4c93a5a90c77","Chrome 89.0.4389.114","encoding_b4",2,"SS8",28,1028.56500000053,4,1,1,0,"motor_trial_mem","SS8",4,2,"pred","pet store.png","giraffe.png",6,4
"13/04/2021 16:03:31","13/04/2021 09:03:30",48742,5,3598452,"5f556bd46e6c4c93a5a90c77","Chrome 89.0.4389.114","encoding_b4",2,"SS8",32,2605.18500000035,4,1,1,0,"motor_trial_cue","SS8",4,3,"rand","grocery store.png","pork.png",1,4
"13/04/2021 16:03:38","13/04/2021 09:03:38",48742,5,3598452,"5f556bd46e6c4c93a5a90c77","Chrome 89.0.4389.114","encoding_b4",2,"SS8",34,3923.90500000329,2,1,1,0,"motor_trial_cue","SS8",4,3,"rand","grocery store.png","pretzel.png",2,2
"13/04/2021 16:03:44","13/04/2021 09:03:43",48742,5,3598452,"5f556bd46e6c4c93a5a90c77","Chrome 89.0.4389.114","encoding_b4",2,"SS8",36,2050.07000000478,3,1,1,0,"motor_trial_cue","SS8",4,3,"rand","grocery store.png","brusselsprouts.png",3,3
"13/04/2021 16:03:47","13/04/2021 09:03:47",48742,5,3598452,"5f556bd46e6c4c93a5a90c77","Chrome 89.0.4389.114","encoding_b4",2,"SS8",38,107.840000004217,3,1,0,0,"motor_trial_cue","SS8",4,3,"rand","grocery store.png","cookedchicken.png",4,1
"13/04/2021 16:03:53","13/04/2021 09:03:53",48742,5,3598452,"5f556bd46e6c4c93a5a90c77","Chrome 89.0.4389.114","encoding_b4",2,"SS8",40,2019.27499999874,3,1,1,0,"motor_trial_cue","SS8",4,3,"rand","grocery store.png","pie.png",5,3
"13/04/2021 16:03:57","13/04/2021 09:03:57",48742,5,3598452,"5f556bd46e6c4c93a5a90c77","Chrome 89.0.4389.114","encoding_b4",2,"SS8",42,1106.62500000035,2,1,1,0,"motor_trial_cue","SS8",4,3,"rand","grocery store.png","icecreamsandwich.png",6,2
"13/04/2021 16:04:07","13/04/2021 09:04:06",48742,5,3598452,"5f556bd46e6c4c93a5a90c77","Chrome 89.0.4389.114","encoding_b4",2,"SS8",46,1740.4549999992,1,1,1,0,"motor_trial_cue","SS8",4,4,"rand","grocery store.png","orange.png",1,1
"13/04/2021 16:04:11","13/04/2021 09:04:11",48742,5,3598452,"5f556bd46e6c4c93a5a90c77","Chrome 89.0.4389.114","encoding_b4",2,"SS8",48,1110.78000000271,3,1,1,0,"motor_trial_cue","SS8",4,4,"rand","grocery store.png","beet.png",2,3
"13/04/2021 16:04:16","13/04/2021 09:04:16",48742,5,3598452,"5f556bd46e6c4c93a5a90c77","Chrome 89.0.4389.114","encoding_b4",2,"SS8",50,1101.45999999804,2,1,1,0,"motor_trial_cue","SS8",4,4,"rand","grocery store.png","kiwi.png",3,2
"13/04/2021 16:04:20","13/04/2021 09:04:20",48742,5,3598452,"5f556bd46e6c4c93a5a90c77","Chrome 89.0.4389.114","encoding_b4",2,"SS8",52,1049.16999999841,4,1,1,0,"motor_trial_cue","SS8",4,4,"rand","grocery store.png","dragonfruit.png",4,4
"13/04/2021 16:04:25","13/04/2021 09:04:25",48742,5,3598452,"5f556bd46e6c4c93a5a90c77","Chrome 89.0.4389.114","encoding_b4",2,"SS8",54,1175.77500000334,2,1,1,0,"motor_trial_cue","SS8",4,4,"rand","grocery store.png","seaweed.png",5,2
"13/04/2021 16:04:30","13/04/2021 09:04:30",48742,5,3598452,"5f556bd46e6c4c93a5a90c77","Chrome 89.0.4389.114","encoding_b4",2,"SS8",56,1210.8950000038,3,1,1,0,"motor_trial_cue","SS8",4,4,"rand","grocery store.png","peanutbutter.png",6,3
"13/04/2021 16:08:03","13/04/2021 09:08:02",48742,5,3598452,"5f556bd46e6c4c93a5a90c77","Chrome 89.0.4389.114","encoding_b5",2,"SS8",4,4168.7249999959,3,1,1,0,"motor_trial_mem","SS8",5,1,"pred","pet store.png","bear.png",1,3
"13/04/2021 16:08:09","13/04/2021 09:08:09",48742,5,3598452,"5f556bd46e6c4c93a5a90c77","Chrome 89.0.4389.114","encoding_b5",2,"SS8",6,2607.78500000015,4,1,0,0,"motor_trial_mem","SS8",5,1,"pred","pet store.png","hermitcrab.png",2,2
"13/04/2021 16:08:13","13/04/2021 09:08:13",48742,5,3598452,"5f556bd46e6c4c93a5a90c77","Chrome 89.0.4389.114","encoding_b5",2,"SS8",8,741.060000000289,2,1,0,0,"motor_trial_mem","SS8",5,1,"pred","pet store.png","lemur.png",3,4
"13/04/2021 16:08:17","13/04/2021 09:08:17",48742,5,3598452,"5f556bd46e6c4c93a5a90c77","Chrome 89.0.4389.114","encoding_b5",2,"SS8",10,688.600000001315,2,1,1,0,"motor_trial_mem","SS8",5,1,"pred","pet store.png","cardinal.png",4,2
"13/04/2021 16:08:22","13/04/2021 09:08:21",48742,5,3598452,"5f556bd46e6c4c93a5a90c77","Chrome 89.0.4389.114","encoding_b5",2,"SS8",12,891.940000001341,1,1,1,0,"motor_trial_mem","SS8",5,1,"pred","pet store.png","hedgehog.png",5,1
"13/04/2021 16:08:26","13/04/2021 09:08:26",48742,5,3598452,"5f556bd46e6c4c93a5a90c77","Chrome 89.0.4389.114","encoding_b5",2,"SS8",14,1102.05999999744,4,1,1,0,"motor_trial_mem","SS8",5,1,"pred","pet store.png","redpanda.png",6,4
"13/04/2021 16:08:36","13/04/2021 09:08:36",48742,5,3598452,"5f556bd46e6c4c93a5a90c77","Chrome 89.0.4389.114","encoding_b5",2,"SS8",18,2496.07500000275,2,1,1,0,"motor_trial_cue","SS8",5,2,"rand","grocery store.png","watermelon.png",1,2
"13/04/2021 16:08:41","13/04/2021 09:08:41",48742,5,3598452,"5f556bd46e6c4c93a5a90c77","Chrome 89.0.4389.114","encoding_b5",2,"SS8",20,1529.71500000422,4,1,1,0,"motor_trial_cue","SS8",5,2,"rand","grocery store.png","bacon.png",2,4
"13/04/2021 16:08:46","13/04/2021 09:08:46",48742,5,3598452,"5f556bd46e6c4c93a5a90c77","Chrome 89.0.4389.114","encoding_b5",2,"SS8",22,1320.31499999721,3,1,1,0,"motor_trial_cue","SS8",5,2,"rand","grocery store.png","ravioli.png",3,3
"13/04/2021 16:08:51","13/04/2021 09:08:51",48742,5,3598452,"5f556bd46e6c4c93a5a90c77","Chrome 89.0.4389.114","encoding_b5",2,"SS8",24,1141.36000000144,1,1,1,0,"motor_trial_cue","SS8",5,2,"rand","grocery store.png","salad.png",4,1
"13/04/2021 16:08:55","13/04/2021 09:08:55",48742,5,3598452,"5f556bd46e6c4c93a5a90c77","Chrome 89.0.4389.114","encoding_b5",2,"SS8",26,1097.19000000041,4,1,1,0,"motor_trial_cue","SS8",5,2,"rand","grocery store.png","cereal.png",5,4
"13/04/2021 16:09:00","13/04/2021 09:09:00",48742,5,3598452,"5f556bd46e6c4c93a5a90c77","Chrome 89.0.4389.114","encoding_b5",2,"SS8",28,1099.94000000006,1,1,1,0,"motor_trial_cue","SS8",5,2,"rand","grocery store.png","burger.png",6,1
"13/04/2021 16:09:10","13/04/2021 09:09:10",48742,5,3598452,"5f556bd46e6c4c93a5a90c77","Chrome 89.0.4389.114","encoding_b5",2,"SS8",32,2356.4899999983,3,1,1,0,"motor_trial_mem","SS8",5,3,"pred","pet store.png","squirrel.png",1,3
"13/04/2021 16:09:14","13/04/2021 09:09:13",48742,5,3598452,"5f556bd46e6c4c93a5a90c77","Chrome 89.0.4389.114","encoding_b5",2,"SS8",34,106.599999999162,2,1,1,0,"motor_trial_mem","SS8",5,3,"pred","pet store.png","grasshopper.png",2,2
"13/04/2021 16:09:19","13/04/2021 09:09:19",48742,5,3598452,"5f556bd46e6c4c93a5a90c77","Chrome 89.0.4389.114","encoding_b5",2,"SS8",36,1825.76000000699,4,1,1,0,"motor_trial_mem","SS8",5,3,"pred","pet store.png","badger.png",3,4
"13/04/2021 16:09:23","13/04/2021 09:09:23",48742,5,3598452,"5f556bd46e6c4c93a5a90c77","Chrome 89.0.4389.114","encoding_b5",2,"SS8",38,879.085000000487,2,1,1,0,"motor_trial_mem","SS8",5,3,"pred","pet store.png","tortoise.png",4,2
"13/04/2021 16:09:28","13/04/2021 09:09:27",48742,5,3598452,"5f556bd46e6c4c93a5a90c77","Chrome 89.0.4389.114","encoding_b5",2,"SS8",40,798.6149999997,1,1,1,0,"motor_trial_mem","SS8",5,3,"pred","pet store.png","parrot.png",5,1
"13/04/2021 16:09:32","13/04/2021 09:09:32",48742,5,3598452,"5f556bd46e6c4c93a5a90c77","Chrome 89.0.4389.114","encoding_b5",2,"SS8",42,895.754999997735,4,1,1,0,"motor_trial_mem","SS8",5,3,"pred","pet store.png","walrus.png",6,4
"13/04/2021 16:09:41","13/04/2021 09:09:41",48742,5,3598452,"5f556bd46e6c4c93a5a90c77","Chrome 89.0.4389.114","encoding_b5",2,"SS8",46,1948.22000000568,2,1,1,0,"motor_trial_cue","SS8",5,4,"rand","grocery store.png","muffin.png",1,2
"13/04/2021 16:09:46","13/04/2021 09:09:46",48742,5,3598452,"5f556bd46e6c4c93a5a90c77","Chrome 89.0.4389.114","encoding_b5",2,"SS8",48,1423.40000000695,1,1,1,0,"motor_trial_cue","SS8",5,4,"rand","grocery store.png","bellpeppers.png",2,1
"13/04/2021 16:09:51","13/04/2021 09:09:51",48742,5,3598452,"5f556bd46e6c4c93a5a90c77","Chrome 89.0.4389.114","encoding_b5",2,"SS8",50,1464.64500000002,3,1,1,0,"motor_trial_cue","SS8",5,4,"rand","grocery store.png","bagel.png",3,3
"13/04/2021 16:09:56","13/04/2021 09:09:56",48742,5,3598452,"5f556bd46e6c4c93a5a90c77","Chrome 89.0.4389.114","encoding_b5",2,"SS8",52,1072.74000000325,4,1,1,0,"motor_trial_cue","SS8",5,4,"rand","grocery store.png","starfruit.png",4,4
"13/04/2021 16:10:01","13/04/2021 09:10:01",48742,5,3598452,"5f556bd46e6c4c93a5a90c77","Chrome 89.0.4389.114","encoding_b5",2,"SS8",54,1556.52499999997,3,1,1,0,"motor_trial_cue","SS8",5,4,"rand","grocery store.png","artichoke.png",5,3
"13/04/2021 16:10:05","13/04/2021 09:10:05",48742,5,3598452,"5f556bd46e6c4c93a5a90c77","Chrome 89.0.4389.114","encoding_b5",2,"SS8",56,948.609999999462,1,1,1,0,"motor_trial_cue","SS8",5,4,"rand","grocery store.png","asparagus.png",6,1
"13/04/2021 16:12:15","13/04/2021 09:12:14",48742,5,3598452,"5f556bd46e6c4c93a5a90c77","Chrome 89.0.4389.114","encoding_b6",2,"SS8",4,1774.70999999787,2,1,1,0,"motor_trial_cue","SS8",6,1,"rand","grocery store.png","apple.png",1,2
"13/04/2021 16:12:19","13/04/2021 09:12:19",48742,5,3598452,"5f556bd46e6c4c93a5a90c77","Chrome 89.0.4389.114","encoding_b6",2,"SS8",6,1105.00499999762,1,1,1,0,"motor_trial_cue","SS8",6,1,"rand","grocery store.png","basil.png",2,1
"13/04/2021 16:12:24","13/04/2021 09:12:24",48742,5,3598452,"5f556bd46e6c4c93a5a90c77","Chrome 89.0.4389.114","encoding_b6",2,"SS8",8,1230.21999999764,3,1,1,0,"motor_trial_cue","SS8",6,1,"rand","grocery store.png","smores.png",3,3
"13/04/2021 16:12:28","13/04/2021 09:12:28",48742,5,3598452,"5f556bd46e6c4c93a5a90c77","Chrome 89.0.4389.114","encoding_b6",2,"SS8",10,467.029999999795,4,1,1,0,"motor_trial_cue","SS8",6,1,"rand","grocery store.png","waffle.png",4,4
"13/04/2021 16:12:32","13/04/2021 09:12:32",48742,5,3598452,"5f556bd46e6c4c93a5a90c77","Chrome 89.0.4389.114","encoding_b6",2,"SS8",12,552.909999998519,3,1,0,0,"motor_trial_cue","SS8",6,1,"rand","grocery store.png","oliveoil.png",5,1
"13/04/2021 16:12:36","13/04/2021 09:12:36",48742,5,3598452,"5f556bd46e6c4c93a5a90c77","Chrome 89.0.4389.114","encoding_b6",2,"SS8",14,737.47999999614,3,1,0,0,"motor_trial_cue","SS8",6,1,"rand","grocery store.png","tomato.png",6,4
"13/04/2021 16:12:46","13/04/2021 09:12:46",48742,5,3598452,"5f556bd46e6c4c93a5a90c77","Chrome 89.0.4389.114","encoding_b6",2,"SS8",18,2760.59000000532,3,1,1,0,"motor_trial_mem","SS8",6,2,"pred","pet store.png","killerwhale.png",1,3
"13/04/2021 16:12:51","13/04/2021 09:12:51",48742,5,3598452,"5f556bd46e6c4c93a5a90c77","Chrome 89.0.4389.114","encoding_b6",2,"SS8",20,785.499999998137,2,1,1,0,"motor_trial_mem","SS8",6,2,"pred","pet store.png","ostrich.png",2,2
"13/04/2021 16:12:55","13/04/2021 09:12:55",48742,5,3598452,"5f556bd46e6c4c93a5a90c77","Chrome 89.0.4389.114","encoding_b6",2,"SS8",22,1000.34500000038,4,1,1,0,"motor_trial_mem","SS8",6,2,"pred","pet store.png","dragonfly.png",3,4
"13/04/2021 16:12:59","13/04/2021 09:12:59",48742,5,3598452,"5f556bd46e6c4c93a5a90c77","Chrome 89.0.4389.114","encoding_b6",2,"SS8",24,477.59500000393,2,1,1,0,"motor_trial_mem","SS8",6,2,"pred","pet store.png","hippo.png",4,2
"13/04/2021 16:13:04","13/04/2021 09:13:04",48742,5,3598452,"5f556bd46e6c4c93a5a90c77","Chrome 89.0.4389.114","encoding_b6",2,"SS8",26,905.800000000454,1,1,1,0,"motor_trial_mem","SS8",6,2,"pred","pet store.png","armadillo.png",5,1
"13/04/2021 16:13:08","13/04/2021 09:13:07",48742,5,3598452,"5f556bd46e6c4c93a5a90c77","Chrome 89.0.4389.114","encoding_b6",2,"SS8",28,358.86500000197,4,1,1,0,"motor_trial_mem","SS8",6,2,"pred","pet store.png","iguana.png",6,4
"13/04/2021 16:13:17","13/04/2021 09:13:17",48742,5,3598452,"5f556bd46e6c4c93a5a90c77","Chrome 89.0.4389.114","encoding_b6",2,"SS8",32,2232.81500000303,4,1,1,0,"motor_trial_cue","SS8",6,3,"rand","grocery store.png","lemon.png",1,4
"13/04/2021 16:13:22","13/04/2021 09:13:22",48742,5,3598452,"5f556bd46e6c4c93a5a90c77","Chrome 89.0.4389.114","encoding_b6",2,"SS8",34,1388.39000000007,2,1,1,0,"motor_trial_cue","SS8",6,3,"rand","grocery store.png","chocolatemilk.png",2,2
"13/04/2021 16:13:27","13/04/2021 09:13:27",48742,5,3598452,"5f556bd46e6c4c93a5a90c77","Chrome 89.0.4389.114","encoding_b6",2,"SS8",36,905.169999998179,1,1,1,0,"motor_trial_cue","SS8",6,3,"rand","grocery store.png","donut.png",3,1
"13/04/2021 16:13:32","13/04/2021 09:13:31",48742,5,3598452,"5f556bd46e6c4c93a5a90c77","Chrome 89.0.4389.114","encoding_b6",2,"SS8",38,1411.96499999933,3,1,1,0,"motor_trial_cue","SS8",6,3,"rand","grocery store.png","pizza.png",4,3
"13/04/2021 16:13:36","13/04/2021 09:13:36",48742,5,3598452,"5f556bd46e6c4c93a5a90c77","Chrome 89.0.4389.114","encoding_b6",2,"SS8",40,1330.13500000379,2,1,1,0,"motor_trial_cue","SS8",6,3,"rand","grocery store.png","burrito.png",5,2
"13/04/2021 16:13:41","13/04/2021 09:13:41",48742,5,3598452,"5f556bd46e6c4c93a5a90c77","Chrome 89.0.4389.114","encoding_b6",2,"SS8",42,1048.40500000137,3,1,1,0,"motor_trial_cue","SS8",6,3,"rand","grocery store.png","celery.png",6,3
"13/04/2021 16:13:50","13/04/2021 09:13:50",48742,5,3598452,"5f556bd46e6c4c93a5a90c77","Chrome 89.0.4389.114","encoding_b6",2,"SS8",46,1622.77499999618,3,1,1,0,"motor_trial_mem","SS8",6,4,"pred","pet store.png","chameleon.png",1,3
"13/04/2021 16:13:54","13/04/2021 09:13:54",48742,5,3598452,"5f556bd46e6c4c93a5a90c77","Chrome 89.0.4389.114","encoding_b6",2,"SS8",48,524.77500000532,2,1,1,0,"motor_trial_mem","SS8",6,4,"pred","pet store.png","camel.png",2,2
"13/04/2021 16:13:58","13/04/2021 09:13:58",48742,5,3598452,"5f556bd46e6c4c93a5a90c77","Chrome 89.0.4389.114","encoding_b6",2,"SS8",50,570.464999997057,4,1,1,0,"motor_trial_mem","SS8",6,4,"pred","pet store.png","cow.png",3,4
"13/04/2021 16:14:02","13/04/2021 09:14:02",48742,5,3598452,"5f556bd46e6c4c93a5a90c77","Chrome 89.0.4389.114","encoding_b6",2,"SS8",52,268.660000001546,2,1,1,0,"motor_trial_mem","SS8",6,4,"pred","pet store.png","pug.png",4,2
"13/04/2021 16:14:06","13/04/2021 09:14:06",48742,5,3598452,"5f556bd46e6c4c93a5a90c77","Chrome 89.0.4389.114","encoding_b6",2,"SS8",54,379.654999997001,1,1,1,0,"motor_trial_mem","SS8",6,4,"pred","pet store.png","polarbear.png",5,1
"13/04/2021 16:14:10","13/04/2021 09:14:10",48742,5,3598452,"5f556bd46e6c4c93a5a90c77","Chrome 89.0.4389.114","encoding_b6",2,"SS8",56,278.550000002724,4,1,1,0,"motor_trial_mem","SS8",6,4,"pred","pet store.png","crocodile.png",6,4
"13/04/2021 16:16:22","13/04/2021 09:16:22",48742,5,3598452,"5f556bd46e6c4c93a5a90c77","Chrome 89.0.4389.114","encoding_b7",2,"SS8",4,2834.69000000332,3,1,1,0,"motor_trial_mem","SS8",7,1,"pred","pet store.png","snail.png",1,3
"13/04/2021 16:16:27","13/04/2021 09:16:27",48742,5,3598452,"5f556bd46e6c4c93a5a90c77","Chrome 89.0.4389.114","encoding_b7",2,"SS8",6,799.914999995963,2,1,1,0,"motor_trial_mem","SS8",7,1,"pred","pet store.png","crab.png",2,2
"13/04/2021 16:16:32","13/04/2021 09:16:32",48742,5,3598452,"5f556bd46e6c4c93a5a90c77","Chrome 89.0.4389.114","encoding_b7",2,"SS8",8,2185.99999999424,4,1,1,0,"motor_trial_mem","SS8",7,1,"pred","pet store.png","ferret.png",3,4
"13/04/2021 16:16:37","13/04/2021 09:16:37",48742,5,3598452,"5f556bd46e6c4c93a5a90c77","Chrome 89.0.4389.114","encoding_b7",2,"SS8",10,880.284999999276,2,1,1,0,"motor_trial_mem","SS8",7,1,"pred","pet store.png","flamingo.png",4,2
"13/04/2021 16:16:41","13/04/2021 09:16:41",48742,5,3598452,"5f556bd46e6c4c93a5a90c77","Chrome 89.0.4389.114","encoding_b7",2,"SS8",12,937.109999998938,1,1,1,0,"motor_trial_mem","SS8",7,1,"pred","pet store.png","panda.png",5,1
"13/04/2021 16:16:46","13/04/2021 09:16:45",48742,5,3598452,"5f556bd46e6c4c93a5a90c77","Chrome 89.0.4389.114","encoding_b7",2,"SS8",14,701.719999997295,4,1,1,0,"motor_trial_mem","SS8",7,1,"pred","pet store.png","cuttlefish.png",6,4
"13/04/2021 16:16:55","13/04/2021 09:16:55",48742,5,3598452,"5f556bd46e6c4c93a5a90c77","Chrome 89.0.4389.114","encoding_b7",2,"SS8",18,2329.24500000081,2,1,1,0,"motor_trial_cue","SS8",7,2,"rand","grocery store.png","blackpepper.png",1,2
"13/04/2021 16:17:00","13/04/2021 09:17:00",48742,5,3598452,"5f556bd46e6c4c93a5a90c77","Chrome 89.0.4389.114","encoding_b7",2,"SS8",20,1394.88999999594,3,1,1,0,"motor_trial_cue","SS8",7,2,"rand","grocery store.png","carrots.png",2,3
"13/04/2021 16:17:05","13/04/2021 09:17:05",48742,5,3598452,"5f556bd46e6c4c93a5a90c77","Chrome 89.0.4389.114","encoding_b7",2,"SS8",22,894.359999998414,1,1,1,0,"motor_trial_cue","SS8",7,2,"rand","grocery store.png","potatochips.png",3,1
"13/04/2021 16:17:09","13/04/2021 09:17:09",48742,5,3598452,"5f556bd46e6c4c93a5a90c77","Chrome 89.0.4389.114","encoding_b7",2,"SS8",24,1145.08999999816,4,1,1,0,"motor_trial_cue","SS8",7,2,"rand","grocery store.png","chocolate.png",4,4
"13/04/2021 16:17:14","13/04/2021 09:17:14",48742,5,3598452,"5f556bd46e6c4c93a5a90c77","Chrome 89.0.4389.114","encoding_b7",2,"SS8",26,1128.39000000531,1,1,1,0,"motor_trial_cue","SS8",7,2,"rand","grocery store.png","honeycomb.png",5,1
"13/04/2021 16:17:19","13/04/2021 09:17:19",48742,5,3598452,"5f556bd46e6c4c93a5a90c77","Chrome 89.0.4389.114","encoding_b7",2,"SS8",28,1202.03999999649,3,1,1,0,"motor_trial_cue","SS8",7,2,"rand","grocery store.png","cookies.png",6,3
"13/04/2021 16:17:29","13/04/2021 09:17:29",48742,5,3598452,"5f556bd46e6c4c93a5a90c77","Chrome 89.0.4389.114","encoding_b7",2,"SS8",32,3137.66000000032,3,1,1,0,"motor_trial_mem","SS8",7,3,"pred","pet store.png","lion.png",1,3
"13/04/2021 16:17:34","13/04/2021 09:17:34",48742,5,3598452,"5f556bd46e6c4c93a5a90c77","Chrome 89.0.4389.114","encoding_b7",2,"SS8",34,844.590000000608,2,1,1,0,"motor_trial_mem","SS8",7,3,"pred","pet store.png","chicken.png",2,2
"13/04/2021 16:17:38","13/04/2021 09:17:38",48742,5,3598452,"5f556bd46e6c4c93a5a90c77","Chrome 89.0.4389.114","encoding_b7",2,"SS8",36,734.960000001593,4,1,1,0,"motor_trial_mem","SS8",7,3,"pred","pet store.png","beetle.png",3,4
"13/04/2021 16:17:42","13/04/2021 09:17:42",48742,5,3598452,"5f556bd46e6c4c93a5a90c77","Chrome 89.0.4389.114","encoding_b7",2,"SS8",38,784.655000003113,2,1,1,0,"motor_trial_mem","SS8",7,3,"pred","pet store.png","tiger.png",4,2
"13/04/2021 16:17:46","13/04/2021 09:17:46",48742,5,3598452,"5f556bd46e6c4c93a5a90c77","Chrome 89.0.4389.114","encoding_b7",2,"SS8",40,679.584999998042,1,1,1,0,"motor_trial_mem","SS8",7,3,"pred","pet store.png","pangolin.png",5,1
"13/04/2021 16:17:50","13/04/2021 09:17:50",48742,5,3598452,"5f556bd46e6c4c93a5a90c77","Chrome 89.0.4389.114","encoding_b7",2,"SS8",42,520.974999999453,4,1,1,0,"motor_trial_mem","SS8",7,3,"pred","pet store.png","sheep.png",6,4
"13/04/2021 16:18:00","13/04/2021 09:18:00",48742,5,3598452,"5f556bd46e6c4c93a5a90c77","Chrome 89.0.4389.114","encoding_b7",2,"SS8",46,2059.65000000288,2,1,1,0,"motor_trial_cue","SS8",7,4,"rand","grocery store.png","cherries.png",1,2
"13/04/2021 16:18:05","13/04/2021 09:18:05",48742,5,3598452,"5f556bd46e6c4c93a5a90c77","Chrome 89.0.4389.114","encoding_b7",2,"SS8",48,1441.74999999814,4,1,1,0,"motor_trial_cue","SS8",7,4,"rand","grocery store.png","peaches.png",2,4
"13/04/2021 16:18:10","13/04/2021 09:18:09",48742,5,3598452,"5f556bd46e6c4c93a5a90c77","Chrome 89.0.4389.114","encoding_b7",2,"SS8",50,1093.43499999522,1,1,1,0,"motor_trial_cue","SS8",7,4,"rand","grocery store.png","acornsquash.png",3,1
"13/04/2021 16:18:14","13/04/2021 09:18:14",48742,5,3598452,"5f556bd46e6c4c93a5a90c77","Chrome 89.0.4389.114","encoding_b7",2,"SS8",52,658.22499999922,3,1,1,0,"motor_trial_cue","SS8",7,4,"rand","grocery store.png","soup.png",4,3
"13/04/2021 16:18:18","13/04/2021 09:18:18",48742,5,3598452,"5f556bd46e6c4c93a5a90c77","Chrome 89.0.4389.114","encoding_b7",2,"SS8",54,804.790000001958,4,1,1,0,"motor_trial_cue","SS8",7,4,"rand","grocery store.png","taco.png",5,4
"13/04/2021 16:18:22","13/04/2021 09:18:22",48742,5,3598452,"5f556bd46e6c4c93a5a90c77","Chrome 89.0.4389.114","encoding_b7",2,"SS8",56,888.529999996535,3,1,1,0,"motor_trial_cue","SS8",7,4,"rand","grocery store.png","poutine.png",6,3
"13/04/2021 16:20:57","13/04/2021 09:20:57",48742,5,3598452,"5f556bd46e6c4c93a5a90c77","Chrome 89.0.4389.114","encoding_b8",2,"SS8",4,3245.71000000287,3,1,1,0,"motor_trial_mem","SS8",8,1,"pred","pet store.png","snake.png",1,3
"13/04/2021 16:21:02","13/04/2021 09:21:02",48742,5,3598452,"5f556bd46e6c4c93a5a90c77","Chrome 89.0.4389.114","encoding_b8",2,"SS8",6,1248.8250000024,2,1,1,0,"motor_trial_mem","SS8",8,1,"pred","pet store.png","emu.png",2,2
"13/04/2021 16:21:08","13/04/2021 09:21:08",48742,5,3598452,"5f556bd46e6c4c93a5a90c77","Chrome 89.0.4389.114","encoding_b8",2,"SS8",8,2412.79000000213,2,1,0,0,"motor_trial_mem","SS8",8,1,"pred","pet store.png","seahorse.png",3,4
"13/04/2021 16:21:13","13/04/2021 09:21:13",48742,5,3598452,"5f556bd46e6c4c93a5a90c77","Chrome 89.0.4389.114","encoding_b8",2,"SS8",10,1508.28000000183,1,1,0,0,"motor_trial_mem","SS8",8,1,"pred","pet store.png","goat.png",4,2
"13/04/2021 16:21:18","13/04/2021 09:21:18",48742,5,3598452,"5f556bd46e6c4c93a5a90c77","Chrome 89.0.4389.114","encoding_b8",2,"SS8",12,1827.5450000001,1,1,1,0,"motor_trial_mem","SS8",8,1,"pred","pet store.png","donkey.png",5,1
"13/04/2021 16:21:22","13/04/2021 09:21:22",48742,5,3598452,"5f556bd46e6c4c93a5a90c77","Chrome 89.0.4389.114","encoding_b8",2,"SS8",14,699.160000003758,4,1,1,0,"motor_trial_mem","SS8",8,1,"pred","pet store.png","chimp.png",6,4
"13/04/2021 16:21:32","13/04/2021 09:21:32",48742,5,3598452,"5f556bd46e6c4c93a5a90c77","Chrome 89.0.4389.114","encoding_b8",2,"SS8",18,2684.84999999782,3,1,1,0,"motor_trial_mem","SS8",8,2,"pred","pet store.png","rhino.png",1,3
"13/04/2021 16:21:37","13/04/2021 09:21:37",48742,5,3598452,"5f556bd46e6c4c93a5a90c77","Chrome 89.0.4389.114","encoding_b8",2,"SS8",20,903.635000002396,2,1,1,0,"motor_trial_mem","SS8",8,2,"pred","pet store.png","dolphin.png",2,2
"13/04/2021 16:21:43","13/04/2021 09:21:43",48742,5,3598452,"5f556bd46e6c4c93a5a90c77","Chrome 89.0.4389.114","encoding_b8",2,"SS8",22,2488.60499999864,4,1,1,0,"motor_trial_mem","SS8",8,2,"pred","pet store.png","cat.png",3,4
"13/04/2021 16:21:47","13/04/2021 09:21:47",48742,5,3598452,"5f556bd46e6c4c93a5a90c77","Chrome 89.0.4389.114","encoding_b8",2,"SS8",24,939.944999998261,2,1,1,0,"motor_trial_mem","SS8",8,2,"pred","pet store.png","boar.png",4,2
"13/04/2021 16:21:55","13/04/2021 09:21:55",48742,5,3598452,"5f556bd46e6c4c93a5a90c77","Chrome 89.0.4389.114","encoding_b8",2,"SS8",26,4164.9499999985,1,1,1,0,"motor_trial_mem","SS8",8,2,"pred","pet store.png","koala.png",5,1
"13/04/2021 16:22:01","13/04/2021 09:22:01",48742,5,3598452,"5f556bd46e6c4c93a5a90c77","Chrome 89.0.4389.114","encoding_b8",2,"SS8",28,2813.65499999811,4,1,1,0,"motor_trial_mem","SS8",8,2,"pred","pet store.png","vulture.png",6,4
"13/04/2021 16:22:11","13/04/2021 09:22:11",48742,5,3598452,"5f556bd46e6c4c93a5a90c77","Chrome 89.0.4389.114","encoding_b8",2,"SS8",32,2039.40500000317,4,1,1,0,"motor_trial_cue","SS8",8,3,"rand","grocery store.png","broccoli.png",1,4
"13/04/2021 16:22:16","13/04/2021 09:22:16",48742,5,3598452,"5f556bd46e6c4c93a5a90c77","Chrome 89.0.4389.114","encoding_b8",2,"SS8",34,1766.16999999533,1,1,1,0,"motor_trial_cue","SS8",8,3,"rand","grocery store.png","dumplings.png",2,1
"13/04/2021 16:22:21","13/04/2021 09:22:21",48742,5,3598452,"5f556bd46e6c4c93a5a90c77","Chrome 89.0.4389.114","encoding_b8",2,"SS8",36,1594.03999999631,3,1,1,0,"motor_trial_cue","SS8",8,3,"rand","grocery store.png","hummus.png",3,3
"13/04/2021 16:22:26","13/04/2021 09:22:26",48742,5,3598452,"5f556bd46e6c4c93a5a90c77","Chrome 89.0.4389.114","encoding_b8",2,"SS8",38,1634.17499999923,2,1,1,0,"motor_trial_cue","SS8",8,3,"rand","grocery store.png","milk.png",4,2
"13/04/2021 16:22:31","13/04/2021 09:22:31",48742,5,3598452,"5f556bd46e6c4c93a5a90c77","Chrome 89.0.4389.114","encoding_b8",2,"SS8",40,1179.24000000494,3,1,1,0,"motor_trial_cue","SS8",8,3,"rand","grocery store.png","mustard.png",5,3
"13/04/2021 16:22:36","13/04/2021 09:22:35",48742,5,3598452,"5f556bd46e6c4c93a5a90c77","Chrome 89.0.4389.114","encoding_b8",2,"SS8",42,954.055000001972,1,1,1,0,"motor_trial_cue","SS8",8,3,"rand","grocery store.png","strawberries.png",6,1
"13/04/2021 16:22:45","13/04/2021 09:22:45",48742,5,3598452,"5f556bd46e6c4c93a5a90c77","Chrome 89.0.4389.114","encoding_b8",2,"SS8",46,2267.87999999942,2,1,1,0,"motor_trial_cue","SS8",8,4,"rand","grocery store.png","pancakes.png",1,2
"13/04/2021 16:22:50","13/04/2021 09:22:50",48742,5,3598452,"5f556bd46e6c4c93a5a90c77","Chrome 89.0.4389.114","encoding_b8",2,"SS8",48,1344.92500000488,3,1,1,0,"motor_trial_cue","SS8",8,4,"rand","grocery store.png","cantaloupe.png",2,3
"13/04/2021 16:22:55","13/04/2021 09:22:55",48742,5,3598452,"5f556bd46e6c4c93a5a90c77","Chrome 89.0.4389.114","encoding_b8",2,"SS8",50,942.940000000817,1,1,1,0,"motor_trial_cue","SS8",8,4,"rand","grocery store.png","hotdog.png",3,1
"13/04/2021 16:23:00","13/04/2021 09:23:00",48742,5,3598452,"5f556bd46e6c4c93a5a90c77","Chrome 89.0.4389.114","encoding_b8",2,"SS8",52,1584.24500000547,4,1,1,0,"motor_trial_cue","SS8",8,4,"rand","grocery store.png","lychee.png",4,4
"13/04/2021 16:23:05","13/04/2021 09:23:05",48742,5,3598452,"5f556bd46e6c4c93a5a90c77","Chrome 89.0.4389.114","encoding_b8",2,"SS8",54,1397.2500000018,3,1,1,0,"motor_trial_cue","SS8",8,4,"rand","grocery store.png","corn.png",5,3
"13/04/2021 16:23:09","13/04/2021 09:23:09",48742,5,3598452,"5f556bd46e6c4c93a5a90c77","Chrome 89.0.4389.114","encoding_b8",2,"SS8",56,1052.92999999801,4,1,1,0,"motor_trial_cue","SS8",8,4,"rand","grocery store.png","popcornshrimp.png",6,4
"13/04/2021 23:30:37","13/04/2021 18:30:37",48742,5,3601810,"5a1f24609b760100013a8c1b","Chrome 89.0.4389.114","encoding_b1",4,"SS6",4,624.719999999797,3,1,1,0,"motor_trial_cue","SS6",1,1,"rand","grocery store.png","granola.png",1,3
"13/04/2021 23:30:42","13/04/2021 18:30:42",48742,5,3601810,"5a1f24609b760100013a8c1b","Chrome 89.0.4389.114","encoding_b1",4,"SS6",6,888.460000000108,2,1,1,0,"motor_trial_cue","SS6",1,1,"rand","grocery store.png","taco.png",2,2
"13/04/2021 23:30:46","13/04/2021 18:30:46",48742,5,3601810,"5a1f24609b760100013a8c1b","Chrome 89.0.4389.114","encoding_b1",4,"SS6",8,700.519999999422,4,1,1,0,"motor_trial_cue","SS6",1,1,"rand","grocery store.png","garlic.png",3,4
"13/04/2021 23:30:50","13/04/2021 18:30:50",48742,5,3601810,"5a1f24609b760100013a8c1b","Chrome 89.0.4389.114","encoding_b1",4,"SS6",10,825.794999999736,1,1,1,0,"motor_trial_cue","SS6",1,1,"rand","grocery store.png","bagel.png",4,1
"13/04/2021 23:30:54","13/04/2021 18:30:54",48742,5,3601810,"5a1f24609b760100013a8c1b","Chrome 89.0.4389.114","encoding_b1",4,"SS6",12,624.524999999267,4,1,1,0,"motor_trial_cue","SS6",1,1,"rand","grocery store.png","acaibowl.png",5,4
"13/04/2021 23:30:59","13/04/2021 18:30:59",48742,5,3601810,"5a1f24609b760100013a8c1b","Chrome 89.0.4389.114","encoding_b1",4,"SS6",14,853.080000000773,2,1,1,0,"motor_trial_cue","SS6",1,1,"rand","grocery store.png","rice.png",6,2
"13/04/2021 23:31:08","13/04/2021 18:31:07",48742,5,3601810,"5a1f24609b760100013a8c1b","Chrome 89.0.4389.114","encoding_b1",4,"SS6",18,1146.44999999927,1,1,1,0,"motor_trial_mem","SS6",1,2,"pred","pet store.png","pangolin.png",1,1
"13/04/2021 23:31:12","13/04/2021 18:31:11",48742,5,3601810,"5a1f24609b760100013a8c1b","Chrome 89.0.4389.114","encoding_b1",4,"SS6",20,550.72000000019,3,1,0,0,"motor_trial_mem","SS6",1,2,"pred","pet store.png","boar.png",2,4
"13/04/2021 23:31:17","13/04/2021 18:31:17",48742,5,3601810,"5a1f24609b760100013a8c1b","Chrome 89.0.4389.114","encoding_b1",4,"SS6",22,2357.12499999955,3,1,1,0,"motor_trial_mem","SS6",1,2,"pred","pet store.png","canadiangoose.png",3,3
"13/04/2021 23:31:22","13/04/2021 18:31:22",48742,5,3601810,"5a1f24609b760100013a8c1b","Chrome 89.0.4389.114","encoding_b1",4,"SS6",24,955.19999999943,4,1,1,0,"motor_trial_mem","SS6",1,2,"pred","pet store.png","bison.png",4,4
"13/04/2021 23:31:26","13/04/2021 18:31:26",48742,5,3601810,"5a1f24609b760100013a8c1b","Chrome 89.0.4389.114","encoding_b1",4,"SS6",26,596.679999999644,2,1,1,0,"motor_trial_mem","SS6",1,2,"pred","pet store.png","lion.png",5,2
"13/04/2021 23:31:30","13/04/2021 18:31:30",48742,5,3601810,"5a1f24609b760100013a8c1b","Chrome 89.0.4389.114","encoding_b1",4,"SS6",28,832.255000000267,3,1,1,0,"motor_trial_mem","SS6",1,2,"pred","pet store.png","tortoise.png",6,3
"13/04/2021 23:31:39","13/04/2021 18:31:39",48742,5,3601810,"5a1f24609b760100013a8c1b","Chrome 89.0.4389.114","encoding_b1",4,"SS6",32,722.650000000634,4,1,1,0,"motor_trial_cue","SS6",1,3,"rand","grocery store.png","fortunecookie.png",1,4
"13/04/2021 23:31:43","13/04/2021 18:31:43",48742,5,3601810,"5a1f24609b760100013a8c1b","Chrome 89.0.4389.114","encoding_b1",4,"SS6",34,674.550000000629,3,1,1,0,"motor_trial_cue","SS6",1,3,"rand","grocery store.png","pineapple.png",2,3
"13/04/2021 23:31:47","13/04/2021 18:31:47",48742,5,3601810,"5a1f24609b760100013a8c1b","Chrome 89.0.4389.114","encoding_b1",4,"SS6",36,564.005000000179,1,1,1,0,"motor_trial_cue","SS6",1,3,"rand","grocery store.png","kiwi.png",3,1
"13/04/2021 23:31:51","13/04/2021 18:31:51",48742,5,3601810,"5a1f24609b760100013a8c1b","Chrome 89.0.4389.114","encoding_b1",4,"SS6",38,603.894999999262,2,1,1,0,"motor_trial_cue","SS6",1,3,"rand","grocery store.png","pancakes.png",4,2
"13/04/2021 23:31:55","13/04/2021 18:31:55",48742,5,3601810,"5a1f24609b760100013a8c1b","Chrome 89.0.4389.114","encoding_b1",4,"SS6",40,607.289999999921,1,1,1,0,"motor_trial_cue","SS6",1,3,"rand","grocery store.png","guava.png",5,1
"13/04/2021 23:32:01","13/04/2021 18:32:00",48742,5,3601810,"5a1f24609b760100013a8c1b","Chrome 89.0.4389.114","encoding_b1",4,"SS6",42,1739.88999999984,3,1,1,0,"motor_trial_cue","SS6",1,3,"rand","grocery store.png","burrito.png",6,3
"13/04/2021 23:32:09","13/04/2021 18:32:09",48742,5,3601810,"5a1f24609b760100013a8c1b","Chrome 89.0.4389.114","encoding_b1",4,"SS6",46,983.084999999846,1,1,1,0,"motor_trial_mem","SS6",1,4,"pred","pet store.png","hummingbird.png",1,1
"13/04/2021 23:32:13","13/04/2021 18:32:13",48742,5,3601810,"5a1f24609b760100013a8c1b","Chrome 89.0.4389.114","encoding_b1",4,"SS6",48,528.395000000281,4,1,1,0,"motor_trial_mem","SS6",1,4,"pred","pet store.png","fox.png",2,4
"13/04/2021 23:32:17","13/04/2021 18:32:17",48742,5,3601810,"5a1f24609b760100013a8c1b","Chrome 89.0.4389.114","encoding_b1",4,"SS6",50,376.785000000382,3,1,1,0,"motor_trial_mem","SS6",1,4,"pred","pet store.png","whale.png",3,3
"13/04/2021 23:32:21","13/04/2021 18:32:21",48742,5,3601810,"5a1f24609b760100013a8c1b","Chrome 89.0.4389.114","encoding_b1",4,"SS6",52,832.730000000098,4,1,1,0,"motor_trial_mem","SS6",1,4,"pred","pet store.png","goose.png",4,4
"13/04/2021 23:32:25","13/04/2021 18:32:25",48742,5,3601810,"5a1f24609b760100013a8c1b","Chrome 89.0.4389.114","encoding_b1",4,"SS6",54,397.794999999867,2,1,1,0,"motor_trial_mem","SS6",1,4,"pred","pet store.png","hippo.png",5,2
"13/04/2021 23:32:29","13/04/2021 18:32:29",48742,5,3601810,"5a1f24609b760100013a8c1b","Chrome 89.0.4389.114","encoding_b1",4,"SS6",56,740.894999999931,3,1,1,0,"motor_trial_mem","SS6",1,4,"pred","pet store.png","shark.png",6,3
"13/04/2021 23:34:30","13/04/2021 18:34:30",48742,5,3601810,"5a1f24609b760100013a8c1b","Chrome 89.0.4389.114","encoding_b2",3,"SS6",4,1143.10999999998,1,1,1,0,"motor_trial_mem","SS6",2,1,"pred","pet store.png","cat.png",1,1
"13/04/2021 23:34:34","13/04/2021 18:34:34",48742,5,3601810,"5a1f24609b760100013a8c1b","Chrome 89.0.4389.114","encoding_b2",3,"SS6",6,488.124999999854,3,1,0,0,"motor_trial_mem","SS6",2,1,"pred","pet store.png","grasshopper.png",2,4
"13/04/2021 23:34:40","13/04/2021 18:34:40",48742,5,3601810,"5a1f24609b760100013a8c1b","Chrome 89.0.4389.114","encoding_b2",3,"SS6",8,2865.09500000011,3,1,1,0,"motor_trial_mem","SS6",2,1,"pred","pet store.png","wolf.png",3,3
"13/04/2021 23:34:48","13/04/2021 18:34:47",48742,5,3601810,"5a1f24609b760100013a8c1b","Chrome 89.0.4389.114","encoding_b2",3,"SS6",10,3698.12499999989,4,1,1,0,"motor_trial_mem","SS6",2,1,"pred","pet store.png","ferret.png",4,4
"13/04/2021 23:34:52","13/04/2021 18:34:52",48742,5,3601810,"5a1f24609b760100013a8c1b","Chrome 89.0.4389.114","encoding_b2",3,"SS6",12,698.739999999816,2,1,1,0,"motor_trial_mem","SS6",2,1,"pred","pet store.png","goldenretriever.png",5,2
"13/04/2021 23:34:56","13/04/2021 18:34:56",48742,5,3601810,"5a1f24609b760100013a8c1b","Chrome 89.0.4389.114","encoding_b2",3,"SS6",14,593.22500000053,3,1,1,0,"motor_trial_mem","SS6",2,1,"pred","pet store.png","elephant.png",6,3
"13/04/2021 23:35:04","13/04/2021 18:35:04",48742,5,3601810,"5a1f24609b760100013a8c1b","Chrome 89.0.4389.114","encoding_b2",3,"SS6",18,695.659999999407,1,1,1,0,"motor_trial_mem","SS6",2,2,"pred","pet store.png","rabbit.png",1,1
"13/04/2021 23:35:08","13/04/2021 18:35:08",48742,5,3601810,"5a1f24609b760100013a8c1b","Chrome 89.0.4389.114","encoding_b2",3,"SS6",20,400.564999999915,4,1,1,0,"motor_trial_mem","SS6",2,2,"pred","pet store.png","koala.png",2,4
"13/04/2021 23:35:14","13/04/2021 18:35:14",48742,5,3601810,"5a1f24609b760100013a8c1b","Chrome 89.0.4389.114","encoding_b2",3,"SS6",22,2060.91500000002,3,1,1,0,"motor_trial_mem","SS6",2,2,"pred","pet store.png","camel.png",3,3
"13/04/2021 23:35:20","13/04/2021 18:35:20",48742,5,3601810,"5a1f24609b760100013a8c1b","Chrome 89.0.4389.114","encoding_b2",3,"SS6",24,2622.19000000005,4,1,1,0,"motor_trial_mem","SS6",2,2,"pred","pet store.png","ostrich.png",4,4
"13/04/2021 23:35:24","13/04/2021 18:35:24",48742,5,3601810,"5a1f24609b760100013a8c1b","Chrome 89.0.4389.114","encoding_b2",3,"SS6",26,402.269999999597,2,1,1,0,"motor_trial_mem","SS6",2,2,"pred","pet store.png","turkey.png",5,2
"13/04/2021 23:35:28","13/04/2021 18:35:28",48742,5,3601810,"5a1f24609b760100013a8c1b","Chrome 89.0.4389.114","encoding_b2",3,"SS6",28,631.97000000038,3,1,1,0,"motor_trial_mem","SS6",2,2,"pred","pet store.png","toucan.png",6,3
"13/04/2021 23:35:36","13/04/2021 18:35:36",48742,5,3601810,"5a1f24609b760100013a8c1b","Chrome 89.0.4389.114","encoding_b2",3,"SS6",32,610.835000000399,3,1,1,0,"motor_trial_cue","SS6",2,3,"rand","grocery store.png","orange.png",1,3
"13/04/2021 23:35:40","13/04/2021 18:35:40",48742,5,3601810,"5a1f24609b760100013a8c1b","Chrome 89.0.4389.114","encoding_b2",3,"SS6",34,452.305000000692,4,1,1,0,"motor_trial_cue","SS6",2,3,"rand","grocery store.png","cinnamon.png",2,4
"13/04/2021 23:35:44","13/04/2021 18:35:44",48742,5,3601810,"5a1f24609b760100013a8c1b","Chrome 89.0.4389.114","encoding_b2",3,"SS6",36,531.535000000076,1,1,1,0,"motor_trial_cue","SS6",2,3,"rand","grocery store.png","grapes.png",3,1
"13/04/2021 23:35:48","13/04/2021 18:35:48",48742,5,3601810,"5a1f24609b760100013a8c1b","Chrome 89.0.4389.114","encoding_b2",3,"SS6",38,474.019999999655,3,1,0,0,"motor_trial_cue","SS6",2,3,"rand","grocery store.png","coconut.png",4,2
"13/04/2021 23:35:52","13/04/2021 18:35:52",48742,5,3601810,"5a1f24609b760100013a8c1b","Chrome 89.0.4389.114","encoding_b2",3,"SS6",40,491.274999999398,1,1,1,0,"motor_trial_cue","SS6",2,3,"rand","grocery store.png","avocado.png",5,1
"13/04/2021 23:35:56","13/04/2021 18:35:56",48742,5,3601810,"5a1f24609b760100013a8c1b","Chrome 89.0.4389.114","encoding_b2",3,"SS6",42,521.604999999894,4,1,1,0,"motor_trial_cue","SS6",2,3,"rand","grocery store.png","caramelapple.png",6,4
"13/04/2021 23:36:05","13/04/2021 18:36:05",48742,5,3601810,"5a1f24609b760100013a8c1b","Chrome 89.0.4389.114","encoding_b2",3,"SS6",46,1320.06000000001,3,1,1,0,"motor_trial_cue","SS6",2,4,"rand","grocery store.png","sandwich.png",1,3
"13/04/2021 23:36:09","13/04/2021 18:36:09",48742,5,3601810,"5a1f24609b760100013a8c1b","Chrome 89.0.4389.114","encoding_b2",3,"SS6",48,678.665000000357,1,1,1,0,"motor_trial_cue","SS6",2,4,"rand","grocery store.png","mushrooms.png",2,1
"13/04/2021 23:36:14","13/04/2021 18:36:13",48742,5,3601810,"5a1f24609b760100013a8c1b","Chrome 89.0.4389.114","encoding_b2",3,"SS6",50,935.910000000149,4,1,1,0,"motor_trial_cue","SS6",2,4,"rand","grocery store.png","tomato.png",3,4
"13/04/2021 23:36:18","13/04/2021 18:36:18",48742,5,3601810,"5a1f24609b760100013a8c1b","Chrome 89.0.4389.114","encoding_b2",3,"SS6",52,699.750000000684,1,1,1,0,"motor_trial_cue","SS6",2,4,"rand","grocery store.png","pretzel.png",4,1
"13/04/2021 23:36:22","13/04/2021 18:36:22",48742,5,3601810,"5a1f24609b760100013a8c1b","Chrome 89.0.4389.114","encoding_b2",3,"SS6",54,903.82499999943,2,1,1,0,"motor_trial_cue","SS6",2,4,"rand","grocery store.png","cherries.png",5,2
"13/04/2021 23:36:26","13/04/2021 18:36:26",48742,5,3601810,"5a1f24609b760100013a8c1b","Chrome 89.0.4389.114","encoding_b2",3,"SS6",56,616.175000000119,4,1,1,0,"motor_trial_cue","SS6",2,4,"rand","grocery store.png","gummybears.png",6,4
"13/04/2021 23:38:23","13/04/2021 18:38:23",48742,5,3601810,"5a1f24609b760100013a8c1b","Chrome 89.0.4389.114","encoding_b3",2,"SS6",4,815.380000000005,4,1,1,0,"motor_trial_cue","SS6",3,1,"rand","grocery store.png","bakedpotato.png",1,4
"13/04/2021 23:38:27","13/04/2021 18:38:27",48742,5,3601810,"5a1f24609b760100013a8c1b","Chrome 89.0.4389.114","encoding_b3",2,"SS6",6,527.640000000247,2,1,1,0,"motor_trial_cue","SS6",3,1,"rand","grocery store.png","burger.png",2,2
"13/04/2021 23:38:31","13/04/2021 18:38:31",48742,5,3601810,"5a1f24609b760100013a8c1b","Chrome 89.0.4389.114","encoding_b3",2,"SS6",8,554.960000000392,3,1,1,0,"motor_trial_cue","SS6",3,1,"rand","grocery store.png","egg.png",3,3
"13/04/2021 23:38:35","13/04/2021 18:38:35",48742,5,3601810,"5a1f24609b760100013a8c1b","Chrome 89.0.4389.114","encoding_b3",2,"SS6",10,596.679999999651,1,1,1,0,"motor_trial_cue","SS6",3,1,"rand","grocery store.png","lychee.png",4,1
"13/04/2021 23:38:39","13/04/2021 18:38:39",48742,5,3601810,"5a1f24609b760100013a8c1b","Chrome 89.0.4389.114","encoding_b3",2,"SS6",12,530.134999999973,3,1,1,0,"motor_trial_cue","SS6",3,1,"rand","grocery store.png","seaweed.png",5,3
"13/04/2021 23:38:44","13/04/2021 18:38:44",48742,5,3601810,"5a1f24609b760100013a8c1b","Chrome 89.0.4389.114","encoding_b3",2,"SS6",14,875.420000000304,2,1,1,0,"motor_trial_cue","SS6",3,1,"rand","grocery store.png","celery.png",6,2
"13/04/2021 23:38:52","13/04/2021 18:38:52",48742,5,3601810,"5a1f24609b760100013a8c1b","Chrome 89.0.4389.114","encoding_b3",2,"SS6",18,723.479999999654,3,1,1,0,"motor_trial_cue","SS6",3,2,"rand","grocery store.png","cake.png",1,3
"13/04/2021 23:38:56","13/04/2021 18:38:56",48742,5,3601810,"5a1f24609b760100013a8c1b","Chrome 89.0.4389.114","encoding_b3",2,"SS6",20,506.564999999682,4,1,1,0,"motor_trial_cue","SS6",3,2,"rand","grocery store.png","potatochips.png",2,4
"13/04/2021 23:39:00","13/04/2021 18:39:00",48742,5,3601810,"5a1f24609b760100013a8c1b","Chrome 89.0.4389.114","encoding_b3",2,"SS6",22,813.739999999598,2,1,1,0,"motor_trial_cue","SS6",3,2,"rand","grocery store.png","nachos.png",3,2
"13/04/2021 23:39:04","13/04/2021 18:39:04",48742,5,3601810,"5a1f24609b760100013a8c1b","Chrome 89.0.4389.114","encoding_b3",2,"SS6",24,670.835000000807,1,1,1,0,"motor_trial_cue","SS6",3,2,"rand","grocery store.png","hotdog.png",4,1
"13/04/2021 23:39:09","13/04/2021 18:39:08",48742,5,3601810,"5a1f24609b760100013a8c1b","Chrome 89.0.4389.114","encoding_b3",2,"SS6",26,613.344999999754,4,1,1,0,"motor_trial_cue","SS6",3,2,"rand","grocery store.png","croissant.png",5,4
"13/04/2021 23:39:13","13/04/2021 18:39:13",48742,5,3601810,"5a1f24609b760100013a8c1b","Chrome 89.0.4389.114","encoding_b3",2,"SS6",28,571.67000000026,1,1,1,0,"motor_trial_cue","SS6",3,2,"rand","grocery store.png","donut.png",6,1
"13/04/2021 23:39:22","13/04/2021 18:39:22",48742,5,3601810,"5a1f24609b760100013a8c1b","Chrome 89.0.4389.114","encoding_b3",2,"SS6",32,1593.93500000078,1,1,1,0,"motor_trial_mem","SS6",3,3,"pred","pet store.png","vulture.png",1,1
"13/04/2021 23:39:26","13/04/2021 18:39:26",48742,5,3601810,"5a1f24609b760100013a8c1b","Chrome 89.0.4389.114","encoding_b3",2,"SS6",34,400.259999999442,4,1,1,0,"motor_trial_mem","SS6",3,3,"pred","pet store.png","stingray.png",2,4
