"utc_date","local_date","exp_id","exp_ver","id","prolific_id","browser","task","task_ver","gorilla_counterbalance","trial_row","rt","response","attempt","accuracy","dishonest","display","counterbalance_order","list","event","condition","event_name","seq_pos","spatial_pos","recon_correct","temp_stim1","temp_stim2","temp_cond","temp_correct","spatial_stim","spatial_correct","temp_conf"
"09/02/2021 22:13:12","09/02/2021 17:13:13",40999,4,3008743,"5f3c23cbcee6b3a3c4faff76","Firefox 85.0","retrieval_b1",4,"SS5",25,1812,3,1,1,0,"spatial_trial","SS5",1,4,"rand","pet store.png",1,3,NA,NA,NA,NA,NA,"parrot.png",3,NA
"09/02/2021 22:13:14","09/02/2021 17:13:15",40999,4,3008743,"5f3c23cbcee6b3a3c4faff76","Firefox 85.0","retrieval_b1",4,"SS5",29,1219,1,1,1,0,"spatial_trial","SS5",1,4,"rand","pet store.png",5,1,NA,NA,NA,NA,NA,"pug.png",1,NA
"09/02/2021 22:13:17","09/02/2021 17:13:18",40999,4,3008743,"5f3c23cbcee6b3a3c4faff76","Firefox 85.0","retrieval_b1",4,"SS5",28,1515,2,1,1,0,"spatial_trial","SS5",1,4,"rand","pet store.png",4,2,NA,NA,NA,NA,NA,"pig.png",2,NA
"09/02/2021 22:13:20","09/02/2021 17:13:20",40999,4,3008743,"5f3c23cbcee6b3a3c4faff76","Firefox 85.0","retrieval_b1",4,"SS5",23,1664,2,1,1,0,"spatial_trial","SS5",1,2,"pred","grocery store.png",5,2,NA,NA,NA,NA,NA,"guava.png",2,NA
"09/02/2021 22:13:22","09/02/2021 17:13:23",40999,4,3008743,"5f3c23cbcee6b3a3c4faff76","Firefox 85.0","retrieval_b1",4,"SS5",22,1132,4,1,1,0,"spatial_trial","SS5",1,2,"pred","grocery store.png",4,4,NA,NA,NA,NA,NA,"cabbage.png",4,NA
"09/02/2021 22:13:24","09/02/2021 17:13:25",40999,4,3008743,"5f3c23cbcee6b3a3c4faff76","Firefox 85.0","retrieval_b1",4,"SS5",24,1176,3,1,1,0,"spatial_trial","SS5",1,2,"pred","grocery store.png",6,3,NA,NA,NA,NA,NA,"nachos.png",3,NA
"09/02/2021 22:13:26","09/02/2021 17:13:27",40999,4,3008743,"5f3c23cbcee6b3a3c4faff76","Firefox 85.0","retrieval_b1",4,"SS5",19,1184,1,1,1,0,"spatial_trial","SS5",1,2,"pred","grocery store.png",1,1,NA,NA,NA,NA,NA,"watermelon.png",1,NA
"09/02/2021 22:13:28","09/02/2021 17:13:29",40999,4,3008743,"5f3c23cbcee6b3a3c4faff76","Firefox 85.0","retrieval_b1",4,"SS5",20,1100,4,1,1,0,"spatial_trial","SS5",1,2,"pred","grocery store.png",2,4,NA,NA,NA,NA,NA,"popcornshrimp.png",4,NA
"09/02/2021 22:13:31","09/02/2021 17:13:31",40999,4,3008743,"5f3c23cbcee6b3a3c4faff76","Firefox 85.0","retrieval_b1",4,"SS5",30,1090,4,1,1,0,"spatial_trial","SS5",1,4,"rand","pet store.png",6,4,NA,NA,NA,NA,NA,"hippo.png",4,NA
"09/02/2021 22:13:33","09/02/2021 17:13:34",40999,4,3008743,"5f3c23cbcee6b3a3c4faff76","Firefox 85.0","retrieval_b1",4,"SS5",21,1140,3,1,1,0,"spatial_trial","SS5",1,2,"pred","grocery store.png",3,3,NA,NA,NA,NA,NA,"coffee.png",3,NA
"09/02/2021 22:13:35","09/02/2021 17:13:36",40999,4,3008743,"5f3c23cbcee6b3a3c4faff76","Firefox 85.0","retrieval_b1",4,"SS5",27,976,1,1,1,0,"spatial_trial","SS5",1,4,"rand","pet store.png",3,1,NA,NA,NA,NA,NA,"owl.png",1,NA
"09/02/2021 22:13:37","09/02/2021 17:13:37",40999,4,3008743,"5f3c23cbcee6b3a3c4faff76","Firefox 85.0","retrieval_b1",4,"SS5",26,852,4,1,1,0,"spatial_trial","SS5",1,4,"rand","pet store.png",2,4,NA,NA,NA,NA,NA,"ferret.png",4,NA
"09/02/2021 22:17:33","09/02/2021 17:17:34",40999,4,3008743,"5f3c23cbcee6b3a3c4faff76","Firefox 85.0","retrieval_b2",3,"SS5",25,1571,3,1,1,0,"spatial_trial","SS5",2,4,"rand","pet store.png",1,3,NA,NA,NA,NA,NA,"deer.png",3,NA
"09/02/2021 22:17:35","09/02/2021 17:17:36",40999,4,3008743,"5f3c23cbcee6b3a3c4faff76","Firefox 85.0","retrieval_b2",3,"SS5",21,1268,3,1,1,0,"spatial_trial","SS5",2,3,"pred","grocery store.png",3,3,NA,NA,NA,NA,NA,"cantaloupe.png",3,NA
"09/02/2021 22:17:38","09/02/2021 17:17:39",40999,4,3008743,"5f3c23cbcee6b3a3c4faff76","Firefox 85.0","retrieval_b2",3,"SS5",23,1300,2,1,1,0,"spatial_trial","SS5",2,3,"pred","grocery store.png",5,2,NA,NA,NA,NA,NA,"bellpeppers.png",2,NA
"09/02/2021 22:17:41","09/02/2021 17:17:42",40999,4,3008743,"5f3c23cbcee6b3a3c4faff76","Firefox 85.0","retrieval_b2",3,"SS5",20,2066,1,1,0,0,"spatial_trial","SS5",2,3,"pred","grocery store.png",2,4,NA,NA,NA,NA,NA,"cookies.png",4,NA
"09/02/2021 22:17:43","09/02/2021 17:17:44",40999,4,3008743,"5f3c23cbcee6b3a3c4faff76","Firefox 85.0","retrieval_b2",3,"SS5",29,1471,4,1,1,0,"spatial_trial","SS5",2,4,"rand","pet store.png",5,4,NA,NA,NA,NA,NA,"turkey.png",4,NA
"09/02/2021 22:17:47","09/02/2021 17:17:47",40999,4,3008743,"5f3c23cbcee6b3a3c4faff76","Firefox 85.0","retrieval_b2",3,"SS5",30,2175,3,1,0,0,"spatial_trial","SS5",2,4,"rand","pet store.png",6,2,NA,NA,NA,NA,NA,"rat.png",2,NA
"09/02/2021 22:17:49","09/02/2021 17:17:50",40999,4,3008743,"5f3c23cbcee6b3a3c4faff76","Firefox 85.0","retrieval_b2",3,"SS5",26,1001,1,1,1,0,"spatial_trial","SS5",2,4,"rand","pet store.png",2,1,NA,NA,NA,NA,NA,"donkey.png",1,NA
"09/02/2021 22:17:51","09/02/2021 17:17:52",40999,4,3008743,"5f3c23cbcee6b3a3c4faff76","Firefox 85.0","retrieval_b2",3,"SS5",28,995,1,1,1,0,"spatial_trial","SS5",2,4,"rand","pet store.png",4,1,NA,NA,NA,NA,NA,"panther.png",1,NA
"09/02/2021 22:17:53","09/02/2021 17:17:54",40999,4,3008743,"5f3c23cbcee6b3a3c4faff76","Firefox 85.0","retrieval_b2",3,"SS5",22,1136,3,1,0,0,"spatial_trial","SS5",2,3,"pred","grocery store.png",4,4,NA,NA,NA,NA,NA,"lemon.png",4,NA
"09/02/2021 22:17:56","09/02/2021 17:17:57",40999,4,3008743,"5f3c23cbcee6b3a3c4faff76","Firefox 85.0","retrieval_b2",3,"SS5",19,1841,3,1,0,0,"spatial_trial","SS5",2,3,"pred","grocery store.png",1,1,NA,NA,NA,NA,NA,"mustard.png",1,NA
"09/02/2021 22:17:59","09/02/2021 17:18:00",40999,4,3008743,"5f3c23cbcee6b3a3c4faff76","Firefox 85.0","retrieval_b2",3,"SS5",24,1863,3,1,1,0,"spatial_trial","SS5",2,3,"pred","grocery store.png",6,3,NA,NA,NA,NA,NA,"acornsquash.png",3,NA
"09/02/2021 22:18:02","09/02/2021 17:18:03",40999,4,3008743,"5f3c23cbcee6b3a3c4faff76","Firefox 85.0","retrieval_b2",3,"SS5",27,2317,2,1,1,0,"spatial_trial","SS5",2,4,"rand","pet store.png",3,2,NA,NA,NA,NA,NA,"eagle.png",2,NA
"09/02/2021 22:21:47","09/02/2021 17:21:48",40999,4,3008743,"5f3c23cbcee6b3a3c4faff76","Firefox 85.0","retrieval_b3",3,"SS5",26,1036,3,1,1,0,"spatial_trial","SS5",3,3,"rand","pet store.png",2,3,NA,NA,NA,NA,NA,"cardinal.png",3,NA
"09/02/2021 22:21:49","09/02/2021 17:21:50",40999,4,3008743,"5f3c23cbcee6b3a3c4faff76","Firefox 85.0","retrieval_b3",3,"SS5",20,851,4,1,1,0,"spatial_trial","SS5",3,4,"pred","grocery store.png",2,4,NA,NA,NA,NA,NA,"seaweed.png",4,NA
"09/02/2021 22:21:51","09/02/2021 17:21:52",40999,4,3008743,"5f3c23cbcee6b3a3c4faff76","Firefox 85.0","retrieval_b3",3,"SS5",23,868,2,1,1,0,"spatial_trial","SS5",3,4,"pred","grocery store.png",5,2,NA,NA,NA,NA,NA,"burger.png",2,NA
"09/02/2021 22:21:53","09/02/2021 17:21:54",40999,4,3008743,"5f3c23cbcee6b3a3c4faff76","Firefox 85.0","retrieval_b3",3,"SS5",30,805,1,1,1,0,"spatial_trial","SS5",3,3,"rand","pet store.png",6,1,NA,NA,NA,NA,NA,"polarbear.png",1,NA
"09/02/2021 22:21:55","09/02/2021 17:21:55",40999,4,3008743,"5f3c23cbcee6b3a3c4faff76","Firefox 85.0","retrieval_b3",3,"SS5",29,816,4,1,1,0,"spatial_trial","SS5",3,3,"rand","pet store.png",5,4,NA,NA,NA,NA,NA,"wolf.png",4,NA
"09/02/2021 22:21:57","09/02/2021 17:21:57",40999,4,3008743,"5f3c23cbcee6b3a3c4faff76","Firefox 85.0","retrieval_b3",3,"SS5",19,872,1,1,1,0,"spatial_trial","SS5",3,4,"pred","grocery store.png",1,1,NA,NA,NA,NA,NA,"tomato.png",1,NA
"09/02/2021 22:21:59","09/02/2021 17:21:59",40999,4,3008743,"5f3c23cbcee6b3a3c4faff76","Firefox 85.0","retrieval_b3",3,"SS5",27,1044,1,1,1,0,"spatial_trial","SS5",3,3,"rand","pet store.png",3,1,NA,NA,NA,NA,NA,"giraffe.png",1,NA
"09/02/2021 22:22:01","09/02/2021 17:22:02",40999,4,3008743,"5f3c23cbcee6b3a3c4faff76","Firefox 85.0","retrieval_b3",3,"SS5",28,1053,4,1,0,0,"spatial_trial","SS5",3,3,"rand","pet store.png",4,3,NA,NA,NA,NA,NA,"badger.png",3,NA
"09/02/2021 22:22:03","09/02/2021 17:22:03",40999,4,3008743,"5f3c23cbcee6b3a3c4faff76","Firefox 85.0","retrieval_b3",3,"SS5",21,902,3,1,1,0,"spatial_trial","SS5",3,4,"pred","grocery store.png",3,3,NA,NA,NA,NA,NA,"blackpepper.png",3,NA
"09/02/2021 22:22:05","09/02/2021 17:22:06",40999,4,3008743,"5f3c23cbcee6b3a3c4faff76","Firefox 85.0","retrieval_b3",3,"SS5",22,1075,4,1,1,0,"spatial_trial","SS5",3,4,"pred","grocery store.png",4,4,NA,NA,NA,NA,NA,"corn.png",4,NA
"09/02/2021 22:22:07","09/02/2021 17:22:08",40999,4,3008743,"5f3c23cbcee6b3a3c4faff76","Firefox 85.0","retrieval_b3",3,"SS5",24,940,2,1,0,0,"spatial_trial","SS5",3,4,"pred","grocery store.png",6,3,NA,NA,NA,NA,NA,"sandwich.png",3,NA
"09/02/2021 22:22:10","09/02/2021 17:22:11",40999,4,3008743,"5f3c23cbcee6b3a3c4faff76","Firefox 85.0","retrieval_b3",3,"SS5",25,2220,2,1,1,0,"spatial_trial","SS5",3,3,"rand","pet store.png",1,2,NA,NA,NA,NA,NA,"vulture.png",2,NA
"09/02/2021 22:25:47","09/02/2021 17:25:48",40999,4,3008743,"5f3c23cbcee6b3a3c4faff76","Firefox 85.0","retrieval_b4",3,"SS5",26,1018,1,1,1,0,"spatial_trial","SS5",4,2,"rand","pet store.png",2,1,NA,NA,NA,NA,NA,"rabbit.png",1,NA
"09/02/2021 22:25:49","09/02/2021 17:25:50",40999,4,3008743,"5f3c23cbcee6b3a3c4faff76","Firefox 85.0","retrieval_b4",3,"SS5",27,798,3,1,1,0,"spatial_trial","SS5",4,2,"rand","pet store.png",3,3,NA,NA,NA,NA,NA,"bat.png",3,NA
"09/02/2021 22:25:51","09/02/2021 17:25:52",40999,4,3008743,"5f3c23cbcee6b3a3c4faff76","Firefox 85.0","retrieval_b4",3,"SS5",22,783,4,1,1,0,"spatial_trial","SS5",4,4,"pred","grocery store.png",4,4,NA,NA,NA,NA,NA,"peaches.png",4,NA
"09/02/2021 22:25:53","09/02/2021 17:25:53",40999,4,3008743,"5f3c23cbcee6b3a3c4faff76","Firefox 85.0","retrieval_b4",3,"SS5",19,850,1,1,1,0,"spatial_trial","SS5",4,4,"pred","grocery store.png",1,1,NA,NA,NA,NA,NA,"ravioli.png",1,NA
"09/02/2021 22:25:55","09/02/2021 17:25:55",40999,4,3008743,"5f3c23cbcee6b3a3c4faff76","Firefox 85.0","retrieval_b4",3,"SS5",30,848,1,1,1,0,"spatial_trial","SS5",4,2,"rand","pet store.png",6,1,NA,NA,NA,NA,NA,"frog.png",1,NA
"09/02/2021 22:25:57","09/02/2021 17:25:57",40999,4,3008743,"5f3c23cbcee6b3a3c4faff76","Firefox 85.0","retrieval_b4",3,"SS5",24,1085,3,1,1,0,"spatial_trial","SS5",4,4,"pred","grocery store.png",6,3,NA,NA,NA,NA,NA,"ramen.png",3,NA
"09/02/2021 22:26:00","09/02/2021 17:26:01",40999,4,3008743,"5f3c23cbcee6b3a3c4faff76","Firefox 85.0","retrieval_b4",3,"SS5",29,2236,2,1,0,0,"spatial_trial","SS5",4,2,"rand","pet store.png",5,3,NA,NA,NA,NA,NA,"fox.png",3,NA
"09/02/2021 22:26:02","09/02/2021 17:26:03",40999,4,3008743,"5f3c23cbcee6b3a3c4faff76","Firefox 85.0","retrieval_b4",3,"SS5",25,1041,4,1,1,0,"spatial_trial","SS5",4,2,"rand","pet store.png",1,4,NA,NA,NA,NA,NA,"canadiangoose.png",4,NA
"09/02/2021 22:26:04","09/02/2021 17:26:05",40999,4,3008743,"5f3c23cbcee6b3a3c4faff76","Firefox 85.0","retrieval_b4",3,"SS5",23,882,2,1,1,0,"spatial_trial","SS5",4,4,"pred","grocery store.png",5,2,NA,NA,NA,NA,NA,"bacon.png",2,NA
"09/02/2021 22:26:07","09/02/2021 17:26:08",40999,4,3008743,"5f3c23cbcee6b3a3c4faff76","Firefox 85.0","retrieval_b4",3,"SS5",28,1830,3,1,0,0,"spatial_trial","SS5",4,2,"rand","pet store.png",4,2,NA,NA,NA,NA,NA,"elephant.png",2,NA
"09/02/2021 22:26:09","09/02/2021 17:26:10",40999,4,3008743,"5f3c23cbcee6b3a3c4faff76","Firefox 85.0","retrieval_b4",3,"SS5",21,898,3,1,1,0,"spatial_trial","SS5",4,4,"pred","grocery store.png",3,3,NA,NA,NA,NA,NA,"beet.png",3,NA
"09/02/2021 22:26:11","09/02/2021 17:26:12",40999,4,3008743,"5f3c23cbcee6b3a3c4faff76","Firefox 85.0","retrieval_b4",3,"SS5",20,1059,4,1,1,0,"spatial_trial","SS5",4,4,"pred","grocery store.png",2,4,NA,NA,NA,NA,NA,"egg.png",4,NA
"09/02/2021 22:30:00","09/02/2021 17:30:00",40999,4,3008743,"5f3c23cbcee6b3a3c4faff76","Firefox 85.0","retrieval_b5",3,"SS5",20,933,4,1,1,0,"spatial_trial","SS5",5,1,"pred","grocery store.png",2,4,NA,NA,NA,NA,NA,"bagel.png",4,NA
"09/02/2021 22:30:02","09/02/2021 17:30:02",40999,4,3008743,"5f3c23cbcee6b3a3c4faff76","Firefox 85.0","retrieval_b5",3,"SS5",25,913,3,1,1,0,"spatial_trial","SS5",5,3,"rand","pet store.png",1,3,NA,NA,NA,NA,NA,"caterpillar.png",3,NA
"09/02/2021 22:30:03","09/02/2021 17:30:04",40999,4,3008743,"5f3c23cbcee6b3a3c4faff76","Firefox 85.0","retrieval_b5",3,"SS5",28,789,1,1,1,0,"spatial_trial","SS5",5,3,"rand","pet store.png",4,1,NA,NA,NA,NA,NA,"crab.png",1,NA
"09/02/2021 22:30:05","09/02/2021 17:30:06",40999,4,3008743,"5f3c23cbcee6b3a3c4faff76","Firefox 85.0","retrieval_b5",3,"SS5",22,790,4,1,1,0,"spatial_trial","SS5",5,1,"pred","grocery store.png",4,4,NA,NA,NA,NA,NA,"butter.png",4,NA
"09/02/2021 22:30:07","09/02/2021 17:30:08",40999,4,3008743,"5f3c23cbcee6b3a3c4faff76","Firefox 85.0","retrieval_b5",3,"SS5",27,871,4,1,1,0,"spatial_trial","SS5",5,3,"rand","pet store.png",3,4,NA,NA,NA,NA,NA,"whale.png",4,NA
"09/02/2021 22:30:10","09/02/2021 17:30:11",40999,4,3008743,"5f3c23cbcee6b3a3c4faff76","Firefox 85.0","retrieval_b5",3,"SS5",24,1545,3,1,1,0,"spatial_trial","SS5",5,1,"pred","grocery store.png",6,3,NA,NA,NA,NA,NA,"granola.png",3,NA
"09/02/2021 22:30:14","09/02/2021 17:30:14",40999,4,3008743,"5f3c23cbcee6b3a3c4faff76","Firefox 85.0","retrieval_b5",3,"SS5",29,2660,2,1,1,0,"spatial_trial","SS5",5,3,"rand","pet store.png",5,2,NA,NA,NA,NA,NA,"panda.png",2,NA
"09/02/2021 22:30:16","09/02/2021 17:30:16",40999,4,3008743,"5f3c23cbcee6b3a3c4faff76","Firefox 85.0","retrieval_b5",3,"SS5",30,1046,4,1,1,0,"spatial_trial","SS5",5,3,"rand","pet store.png",6,4,NA,NA,NA,NA,NA,"shark.png",4,NA
"09/02/2021 22:30:18","09/02/2021 17:30:19",40999,4,3008743,"5f3c23cbcee6b3a3c4faff76","Firefox 85.0","retrieval_b5",3,"SS5",21,1532,3,1,1,0,"spatial_trial","SS5",5,1,"pred","grocery store.png",3,3,NA,NA,NA,NA,NA,"bread.png",3,NA
"09/02/2021 22:30:20","09/02/2021 17:30:21",40999,4,3008743,"5f3c23cbcee6b3a3c4faff76","Firefox 85.0","retrieval_b5",3,"SS5",23,926,2,1,1,0,"spatial_trial","SS5",5,1,"pred","grocery store.png",5,2,NA,NA,NA,NA,NA,"avocado.png",2,NA
"09/02/2021 22:30:22","09/02/2021 17:30:23",40999,4,3008743,"5f3c23cbcee6b3a3c4faff76","Firefox 85.0","retrieval_b5",3,"SS5",19,984,1,1,1,0,"spatial_trial","SS5",5,1,"pred","grocery store.png",1,1,NA,NA,NA,NA,NA,"croissant.png",1,NA
"09/02/2021 22:30:24","09/02/2021 17:30:25",40999,4,3008743,"5f3c23cbcee6b3a3c4faff76","Firefox 85.0","retrieval_b5",3,"SS5",26,1158,1,1,1,0,"spatial_trial","SS5",5,3,"rand","pet store.png",2,1,NA,NA,NA,NA,NA,"hammerheadshark.png",1,NA
"09/02/2021 22:34:19","09/02/2021 17:34:20",40999,4,3008743,"5f3c23cbcee6b3a3c4faff76","Firefox 85.0","retrieval_b6",3,"SS5",25,2087,3,1,0,0,"spatial_trial","SS5",6,1,"rand","pet store.png",1,2,NA,NA,NA,NA,NA,"camel.png",2,NA
"09/02/2021 22:34:21","09/02/2021 17:34:22",40999,4,3008743,"5f3c23cbcee6b3a3c4faff76","Firefox 85.0","retrieval_b6",3,"SS5",27,1127,4,1,1,0,"spatial_trial","SS5",6,1,"rand","pet store.png",3,4,NA,NA,NA,NA,NA,"beetle.png",4,NA
"09/02/2021 22:34:23","09/02/2021 17:34:24",40999,4,3008743,"5f3c23cbcee6b3a3c4faff76","Firefox 85.0","retrieval_b6",3,"SS5",21,1009,3,1,1,0,"spatial_trial","SS5",6,2,"pred","grocery store.png",3,3,NA,NA,NA,NA,NA,"jalapeno.png",3,NA
"09/02/2021 22:34:26","09/02/2021 17:34:27",40999,4,3008743,"5f3c23cbcee6b3a3c4faff76","Firefox 85.0","retrieval_b6",3,"SS5",24,1875,3,1,1,0,"spatial_trial","SS5",6,2,"pred","grocery store.png",6,3,NA,NA,NA,NA,NA,"pineapple.png",3,NA
"09/02/2021 22:34:28","09/02/2021 17:34:29",40999,4,3008743,"5f3c23cbcee6b3a3c4faff76","Firefox 85.0","retrieval_b6",3,"SS5",20,1001,4,1,1,0,"spatial_trial","SS5",6,2,"pred","grocery store.png",2,4,NA,NA,NA,NA,NA,"donut.png",4,NA
"09/02/2021 22:34:31","09/02/2021 17:34:32",40999,4,3008743,"5f3c23cbcee6b3a3c4faff76","Firefox 85.0","retrieval_b6",3,"SS5",30,1766,1,1,1,0,"spatial_trial","SS5",6,1,"rand","pet store.png",6,1,NA,NA,NA,NA,NA,"mantis.png",1,NA
"09/02/2021 22:34:34","09/02/2021 17:34:35",40999,4,3008743,"5f3c23cbcee6b3a3c4faff76","Firefox 85.0","retrieval_b6",3,"SS5",23,1813,2,1,1,0,"spatial_trial","SS5",6,2,"pred","grocery store.png",5,2,NA,NA,NA,NA,NA,"soup.png",2,NA
"09/02/2021 22:34:36","09/02/2021 17:34:37",40999,4,3008743,"5f3c23cbcee6b3a3c4faff76","Firefox 85.0","retrieval_b6",3,"SS5",19,1096,1,1,1,0,"spatial_trial","SS5",6,2,"pred","grocery store.png",1,1,NA,NA,NA,NA,NA,"garlic.png",1,NA
"09/02/2021 22:34:39","09/02/2021 17:34:40",40999,4,3008743,"5f3c23cbcee6b3a3c4faff76","Firefox 85.0","retrieval_b6",3,"SS5",26,1933,1,1,1,0,"spatial_trial","SS5",6,1,"rand","pet store.png",2,1,NA,NA,NA,NA,NA,"bison.png",1,NA
"09/02/2021 22:34:41","09/02/2021 17:34:42",40999,4,3008743,"5f3c23cbcee6b3a3c4faff76","Firefox 85.0","retrieval_b6",3,"SS5",28,1099,3,1,1,0,"spatial_trial","SS5",6,1,"rand","pet store.png",4,3,NA,NA,NA,NA,NA,"manatee.png",3,NA
"09/02/2021 22:34:43","09/02/2021 17:34:44",40999,4,3008743,"5f3c23cbcee6b3a3c4faff76","Firefox 85.0","retrieval_b6",3,"SS5",29,1030,4,1,1,0,"spatial_trial","SS5",6,1,"rand","pet store.png",5,4,NA,NA,NA,NA,NA,"dragonfly.png",4,NA
"09/02/2021 22:34:46","09/02/2021 17:34:47",40999,4,3008743,"5f3c23cbcee6b3a3c4faff76","Firefox 85.0","retrieval_b6",3,"SS5",22,2038,4,1,1,0,"spatial_trial","SS5",6,2,"pred","grocery store.png",4,4,NA,NA,NA,NA,NA,"smores.png",4,NA
"09/02/2021 22:37:57","09/02/2021 17:37:58",40999,4,3008743,"5f3c23cbcee6b3a3c4faff76","Firefox 85.0","retrieval_b7",3,"SS5",25,995,2,1,1,0,"spatial_trial","SS5",7,2,"rand","pet store.png",1,2,NA,NA,NA,NA,NA,"seahorse.png",2,NA
"09/02/2021 22:37:59","09/02/2021 17:38:00",40999,4,3008743,"5f3c23cbcee6b3a3c4faff76","Firefox 85.0","retrieval_b7",3,"SS5",28,1005,4,1,1,0,"spatial_trial","SS5",7,2,"rand","pet store.png",4,4,NA,NA,NA,NA,NA,"cheetah.png",4,NA
"09/02/2021 22:38:01","09/02/2021 17:38:02",40999,4,3008743,"5f3c23cbcee6b3a3c4faff76","Firefox 85.0","retrieval_b7",3,"SS5",29,846,1,1,1,0,"spatial_trial","SS5",7,2,"rand","pet store.png",5,1,NA,NA,NA,NA,NA,"squirrel.png",1,NA
"09/02/2021 22:38:04","09/02/2021 17:38:05",40999,4,3008743,"5f3c23cbcee6b3a3c4faff76","Firefox 85.0","retrieval_b7",3,"SS5",23,2232,3,1,0,0,"spatial_trial","SS5",7,1,"pred","grocery store.png",5,2,NA,NA,NA,NA,NA,"brusselsprouts.png",2,NA
"09/02/2021 22:38:06","09/02/2021 17:38:07",40999,4,3008743,"5f3c23cbcee6b3a3c4faff76","Firefox 85.0","retrieval_b7",3,"SS5",20,918,4,1,1,0,"spatial_trial","SS5",7,1,"pred","grocery store.png",2,4,NA,NA,NA,NA,NA,"asparagus.png",4,NA
"09/02/2021 22:38:09","09/02/2021 17:38:10",40999,4,3008743,"5f3c23cbcee6b3a3c4faff76","Firefox 85.0","retrieval_b7",3,"SS5",24,2058,3,1,1,0,"spatial_trial","SS5",7,1,"pred","grocery store.png",6,3,NA,NA,NA,NA,NA,"icecreamsandwich.png",3,NA
"09/02/2021 22:38:12","09/02/2021 17:38:13",40999,4,3008743,"5f3c23cbcee6b3a3c4faff76","Firefox 85.0","retrieval_b7",3,"SS5",26,1489,3,1,1,0,"spatial_trial","SS5",7,2,"rand","pet store.png",2,3,NA,NA,NA,NA,NA,"horse.png",3,NA
"09/02/2021 22:38:15","09/02/2021 17:38:16",40999,4,3008743,"5f3c23cbcee6b3a3c4faff76","Firefox 85.0","retrieval_b7",3,"SS5",21,2091,3,1,1,0,"spatial_trial","SS5",7,1,"pred","grocery store.png",3,3,NA,NA,NA,NA,NA,"fortunecookie.png",3,NA
"09/02/2021 22:38:18","09/02/2021 17:38:18",40999,4,3008743,"5f3c23cbcee6b3a3c4faff76","Firefox 85.0","retrieval_b7",3,"SS5",22,1557,4,1,1,0,"spatial_trial","SS5",7,1,"pred","grocery store.png",4,4,NA,NA,NA,NA,NA,"milk.png",4,NA
"09/02/2021 22:38:20","09/02/2021 17:38:21",40999,4,3008743,"5f3c23cbcee6b3a3c4faff76","Firefox 85.0","retrieval_b7",3,"SS5",30,1280,4,1,0,0,"spatial_trial","SS5",7,2,"rand","pet store.png",6,3,NA,NA,NA,NA,NA,"lion.png",3,NA
"09/02/2021 22:38:22","09/02/2021 17:38:23",40999,4,3008743,"5f3c23cbcee6b3a3c4faff76","Firefox 85.0","retrieval_b7",3,"SS5",27,1114,1,1,1,0,"spatial_trial","SS5",7,2,"rand","pet store.png",3,1,NA,NA,NA,NA,NA,"squid.png",1,NA
"09/02/2021 22:38:24","09/02/2021 17:38:25",40999,4,3008743,"5f3c23cbcee6b3a3c4faff76","Firefox 85.0","retrieval_b7",3,"SS5",19,1174,1,1,1,0,"spatial_trial","SS5",7,1,"pred","grocery store.png",1,1,NA,NA,NA,NA,NA,"grapes.png",1,NA
"09/02/2021 22:42:04","09/02/2021 17:42:05",40999,4,3008743,"5f3c23cbcee6b3a3c4faff76","Firefox 85.0","retrieval_b8",3,"SS5",24,1063,4,1,0,0,"spatial_trial","SS5",8,3,"pred","grocery store.png",6,3,NA,NA,NA,NA,NA,"honeycomb.png",3,NA
"09/02/2021 22:42:07","09/02/2021 17:42:08",40999,4,3008743,"5f3c23cbcee6b3a3c4faff76","Firefox 85.0","retrieval_b8",3,"SS5",22,1838,4,1,1,0,"spatial_trial","SS5",8,3,"pred","grocery store.png",4,4,NA,NA,NA,NA,NA,"potatochips.png",4,NA
"09/02/2021 22:42:10","09/02/2021 17:42:11",40999,4,3008743,"5f3c23cbcee6b3a3c4faff76","Firefox 85.0","retrieval_b8",3,"SS5",23,1845,3,1,0,0,"spatial_trial","SS5",8,3,"pred","grocery store.png",5,2,NA,NA,NA,NA,NA,"oliveoil.png",2,NA
"09/02/2021 22:42:12","09/02/2021 17:42:13",40999,4,3008743,"5f3c23cbcee6b3a3c4faff76","Firefox 85.0","retrieval_b8",3,"SS5",28,1207,1,1,1,0,"spatial_trial","SS5",8,1,"rand","pet store.png",4,1,NA,NA,NA,NA,NA,"snail.png",1,NA
"09/02/2021 22:42:14","09/02/2021 17:42:15",40999,4,3008743,"5f3c23cbcee6b3a3c4faff76","Firefox 85.0","retrieval_b8",3,"SS5",19,1036,1,1,1,0,"spatial_trial","SS5",8,3,"pred","grocery store.png",1,1,NA,NA,NA,NA,NA,"carrots.png",1,NA
"09/02/2021 22:42:17","09/02/2021 17:42:18",40999,4,3008743,"5f3c23cbcee6b3a3c4faff76","Firefox 85.0","retrieval_b8",3,"SS5",21,1168,3,1,1,0,"spatial_trial","SS5",8,3,"pred","grocery store.png",3,3,NA,NA,NA,NA,NA,"pomegranate.png",3,NA
"09/02/2021 22:42:19","09/02/2021 17:42:20",40999,4,3008743,"5f3c23cbcee6b3a3c4faff76","Firefox 85.0","retrieval_b8",3,"SS5",25,1121,3,1,1,0,"spatial_trial","SS5",8,1,"rand","pet store.png",1,3,NA,NA,NA,NA,NA,"pelican.png",3,NA
"09/02/2021 22:42:21","09/02/2021 17:42:22",40999,4,3008743,"5f3c23cbcee6b3a3c4faff76","Firefox 85.0","retrieval_b8",3,"SS5",26,1015,2,1,1,0,"spatial_trial","SS5",8,1,"rand","pet store.png",2,2,NA,NA,NA,NA,NA,"toad.png",2,NA
"09/02/2021 22:42:23","09/02/2021 17:42:24",40999,4,3008743,"5f3c23cbcee6b3a3c4faff76","Firefox 85.0","retrieval_b8",3,"SS5",27,948,4,1,1,0,"spatial_trial","SS5",8,1,"rand","pet store.png",3,4,NA,NA,NA,NA,NA,"flamingo.png",4,NA
"09/02/2021 22:42:25","09/02/2021 17:42:26",40999,4,3008743,"5f3c23cbcee6b3a3c4faff76","Firefox 85.0","retrieval_b8",3,"SS5",30,1083,2,1,1,0,"spatial_trial","SS5",8,1,"rand","pet store.png",6,2,NA,NA,NA,NA,NA,"hummingbird.png",2,NA
"09/02/2021 22:42:27","09/02/2021 17:42:28",40999,4,3008743,"5f3c23cbcee6b3a3c4faff76","Firefox 85.0","retrieval_b8",3,"SS5",29,1175,4,1,1,0,"spatial_trial","SS5",8,1,"rand","pet store.png",5,4,NA,NA,NA,NA,NA,"iguana.png",4,NA
"09/02/2021 22:42:29","09/02/2021 17:42:30",40999,4,3008743,"5f3c23cbcee6b3a3c4faff76","Firefox 85.0","retrieval_b8",3,"SS5",20,1093,4,1,1,0,"spatial_trial","SS5",8,3,"pred","grocery store.png",2,4,NA,NA,NA,NA,NA,"waffle.png",4,NA
"09/02/2021 22:13:59","09/02/2021 17:13:57",40999,4,3008809,"5ec771e68288e91bf1919096","Firefox 85.0","retrieval_b1",4,"SS3",19,4229,3,1,1,0,"spatial_trial","SS3",1,1,"pred","grocery store.png",1,3,NA,NA,NA,NA,NA,"cantaloupe.png",3,NA
"09/02/2021 22:14:02","09/02/2021 17:14:00",40999,4,3008809,"5ec771e68288e91bf1919096","Firefox 85.0","retrieval_b1",4,"SS3",21,1861,4,1,1,0,"spatial_trial","SS3",1,1,"pred","grocery store.png",3,4,NA,NA,NA,NA,NA,"artichoke.png",4,NA
"09/02/2021 22:14:06","09/02/2021 17:14:04",40999,4,3008809,"5ec771e68288e91bf1919096","Firefox 85.0","retrieval_b1",4,"SS3",27,2928,2,1,0,0,"spatial_trial","SS3",1,2,"rand","pet store.png",3,1,NA,NA,NA,NA,NA,"squirrel.png",1,NA
"09/02/2021 22:14:09","09/02/2021 17:14:07",40999,4,3008809,"5ec771e68288e91bf1919096","Firefox 85.0","retrieval_b1",4,"SS3",22,1899,2,1,1,0,"spatial_trial","SS3",1,1,"pred","grocery store.png",4,2,NA,NA,NA,NA,NA,"cookies.png",2,NA
"09/02/2021 22:14:13","09/02/2021 17:14:11",40999,4,3008809,"5ec771e68288e91bf1919096","Firefox 85.0","retrieval_b1",4,"SS3",26,2628,4,1,1,0,"spatial_trial","SS3",1,2,"rand","pet store.png",2,4,NA,NA,NA,NA,NA,"polarbear.png",4,NA
"09/02/2021 22:14:16","09/02/2021 17:14:14",40999,4,3008809,"5ec771e68288e91bf1919096","Firefox 85.0","retrieval_b1",4,"SS3",29,2196,1,1,1,0,"spatial_trial","SS3",1,2,"rand","pet store.png",5,1,NA,NA,NA,NA,NA,"deer.png",1,NA
"09/02/2021 22:14:18","09/02/2021 17:14:16",40999,4,3008809,"5ec771e68288e91bf1919096","Firefox 85.0","retrieval_b1",4,"SS3",28,1321,3,1,1,0,"spatial_trial","SS3",1,2,"rand","pet store.png",4,3,NA,NA,NA,NA,NA,"dragonfly.png",3,NA
"09/02/2021 22:14:26","09/02/2021 17:14:24",40999,4,3008809,"5ec771e68288e91bf1919096","Firefox 85.0","retrieval_b1",4,"SS3",20,6618,4,1,0,0,"spatial_trial","SS3",1,1,"pred","grocery store.png",2,2,NA,NA,NA,NA,NA,"pineapple.png",2,NA
"09/02/2021 22:14:29","09/02/2021 17:14:27",40999,4,3008809,"5ec771e68288e91bf1919096","Firefox 85.0","retrieval_b1",4,"SS3",25,2274,2,1,1,0,"spatial_trial","SS3",1,2,"rand","pet store.png",1,2,NA,NA,NA,NA,NA,"cat.png",2,NA
"09/02/2021 22:14:35","09/02/2021 17:14:33",40999,4,3008809,"5ec771e68288e91bf1919096","Firefox 85.0","retrieval_b1",4,"SS3",24,4603,3,1,0,0,"spatial_trial","SS3",1,1,"pred","grocery store.png",6,4,NA,NA,NA,NA,NA,"sandwich.png",4,NA
"09/02/2021 22:14:37","09/02/2021 17:14:35",40999,4,3008809,"5ec771e68288e91bf1919096","Firefox 85.0","retrieval_b1",4,"SS3",23,1113,1,1,1,0,"spatial_trial","SS3",1,1,"pred","grocery store.png",5,1,NA,NA,NA,NA,NA,"bagel.png",1,NA
"09/02/2021 22:14:39","09/02/2021 17:14:37",40999,4,3008809,"5ec771e68288e91bf1919096","Firefox 85.0","retrieval_b1",4,"SS3",30,1351,4,1,1,0,"spatial_trial","SS3",1,2,"rand","pet store.png",6,4,NA,NA,NA,NA,NA,"elephant.png",4,NA
"09/02/2021 22:17:57","09/02/2021 17:17:55",40999,4,3008809,"5ec771e68288e91bf1919096","Firefox 85.0","retrieval_b2",3,"SS3",22,3416,2,1,1,0,"spatial_trial","SS3",2,4,"pred","grocery store.png",4,2,NA,NA,NA,NA,NA,"icecreamsandwich.png",2,NA
"09/02/2021 22:18:01","09/02/2021 17:18:00",40999,4,3008809,"5ec771e68288e91bf1919096","Firefox 85.0","retrieval_b2",3,"SS3",20,3204,2,1,1,0,"spatial_trial","SS3",2,4,"pred","grocery store.png",2,2,NA,NA,NA,NA,NA,"honeycomb.png",2,NA
"09/02/2021 22:18:07","09/02/2021 17:18:05",40999,4,3008809,"5ec771e68288e91bf1919096","Firefox 85.0","retrieval_b2",3,"SS3",27,4340,1,1,0,0,"spatial_trial","SS3",2,3,"rand","pet store.png",3,3,NA,NA,NA,NA,NA,"rhino.png",3,NA
"09/02/2021 22:18:10","09/02/2021 17:18:08",40999,4,3008809,"5ec771e68288e91bf1919096","Firefox 85.0","retrieval_b2",3,"SS3",26,2385,1,1,1,0,"spatial_trial","SS3",2,3,"rand","pet store.png",2,1,NA,NA,NA,NA,NA,"ferret.png",1,NA
"09/02/2021 22:18:12","09/02/2021 17:18:10",40999,4,3008809,"5ec771e68288e91bf1919096","Firefox 85.0","retrieval_b2",3,"SS3",21,1118,4,1,1,0,"spatial_trial","SS3",2,4,"pred","grocery store.png",3,4,NA,NA,NA,NA,NA,"ramen.png",4,NA
"09/02/2021 22:18:15","09/02/2021 17:18:13",40999,4,3008809,"5ec771e68288e91bf1919096","Firefox 85.0","retrieval_b2",3,"SS3",19,1207,3,1,1,0,"spatial_trial","SS3",2,4,"pred","grocery store.png",1,3,NA,NA,NA,NA,NA,"orange.png",3,NA
"09/02/2021 22:18:17","09/02/2021 17:18:15",40999,4,3008809,"5ec771e68288e91bf1919096","Firefox 85.0","retrieval_b2",3,"SS3",25,1286,2,1,1,0,"spatial_trial","SS3",2,3,"rand","pet store.png",1,2,NA,NA,NA,NA,NA,"wolf.png",2,NA
"09/02/2021 22:18:19","09/02/2021 17:18:17",40999,4,3008809,"5ec771e68288e91bf1919096","Firefox 85.0","retrieval_b2",3,"SS3",29,1487,1,1,1,0,"spatial_trial","SS3",2,3,"rand","pet store.png",5,1,NA,NA,NA,NA,NA,"chicken.png",1,NA
"09/02/2021 22:18:22","09/02/2021 17:18:20",40999,4,3008809,"5ec771e68288e91bf1919096","Firefox 85.0","retrieval_b2",3,"SS3",30,1493,4,1,1,0,"spatial_trial","SS3",2,3,"rand","pet store.png",6,4,NA,NA,NA,NA,NA,"pufferfish.png",4,NA
"09/02/2021 22:18:25","09/02/2021 17:18:23",40999,4,3008809,"5ec771e68288e91bf1919096","Firefox 85.0","retrieval_b2",3,"SS3",28,1724,4,1,1,0,"spatial_trial","SS3",2,3,"rand","pet store.png",4,4,NA,NA,NA,NA,NA,"beetle.png",4,NA
"09/02/2021 22:18:28","09/02/2021 17:18:26",40999,4,3008809,"5ec771e68288e91bf1919096","Firefox 85.0","retrieval_b2",3,"SS3",24,2260,3,1,0,0,"spatial_trial","SS3",2,4,"pred","grocery store.png",6,4,NA,NA,NA,NA,NA,"avocado.png",4,NA
"09/02/2021 22:18:30","09/02/2021 17:18:28",40999,4,3008809,"5ec771e68288e91bf1919096","Firefox 85.0","retrieval_b2",3,"SS3",23,1310,1,1,1,0,"spatial_trial","SS3",2,4,"pred","grocery store.png",5,1,NA,NA,NA,NA,NA,"potatochips.png",1,NA
"09/02/2021 22:21:50","09/02/2021 17:21:49",40999,4,3008809,"5ec771e68288e91bf1919096","Firefox 85.0","retrieval_b3",3,"SS3",22,3708,3,1,0,0,"spatial_trial","SS3",3,2,"pred","grocery store.png",4,2,NA,NA,NA,NA,NA,"peaches.png",2,NA
"09/02/2021 22:21:54","09/02/2021 17:21:52",40999,4,3008809,"5ec771e68288e91bf1919096","Firefox 85.0","retrieval_b3",3,"SS3",21,2138,4,1,1,0,"spatial_trial","SS3",3,2,"pred","grocery store.png",3,4,NA,NA,NA,NA,NA,"guava.png",4,NA
"09/02/2021 22:21:57","09/02/2021 17:21:55",40999,4,3008809,"5ec771e68288e91bf1919096","Firefox 85.0","retrieval_b3",3,"SS3",27,2739,2,1,0,0,"spatial_trial","SS3",3,4,"rand","pet store.png",3,1,NA,NA,NA,NA,NA,"hammerheadshark.png",1,NA
"09/02/2021 22:21:59","09/02/2021 17:21:58",40999,4,3008809,"5ec771e68288e91bf1919096","Firefox 85.0","retrieval_b3",3,"SS3",26,1054,2,1,1,0,"spatial_trial","SS3",3,4,"rand","pet store.png",2,2,NA,NA,NA,NA,NA,"canadiangoose.png",2,NA
"09/02/2021 22:22:01","09/02/2021 17:21:59",40999,4,3008809,"5ec771e68288e91bf1919096","Firefox 85.0","retrieval_b3",3,"SS3",23,798,1,1,1,0,"spatial_trial","SS3",3,2,"pred","grocery store.png",5,1,NA,NA,NA,NA,NA,"butter.png",1,NA
"09/02/2021 22:22:04","09/02/2021 17:22:02",40999,4,3008809,"5ec771e68288e91bf1919096","Firefox 85.0","retrieval_b3",3,"SS3",25,1363,4,1,1,0,"spatial_trial","SS3",3,4,"rand","pet store.png",1,4,NA,NA,NA,NA,NA,"whale.png",4,NA
"09/02/2021 22:22:06","09/02/2021 17:22:04",40999,4,3008809,"5ec771e68288e91bf1919096","Firefox 85.0","retrieval_b3",3,"SS3",24,1190,4,1,1,0,"spatial_trial","SS3",3,2,"pred","grocery store.png",6,4,NA,NA,NA,NA,NA,"broccoli.png",4,NA
"09/02/2021 22:22:08","09/02/2021 17:22:06",40999,4,3008809,"5ec771e68288e91bf1919096","Firefox 85.0","retrieval_b3",3,"SS3",30,841,3,1,1,0,"spatial_trial","SS3",3,4,"rand","pet store.png",6,3,NA,NA,NA,NA,NA,"snake.png",3,NA
"09/02/2021 22:22:10","09/02/2021 17:22:08",40999,4,3008809,"5ec771e68288e91bf1919096","Firefox 85.0","retrieval_b3",3,"SS3",28,1302,3,1,1,0,"spatial_trial","SS3",3,4,"rand","pet store.png",4,3,NA,NA,NA,NA,NA,"redpanda.png",3,NA
"09/02/2021 22:22:12","09/02/2021 17:22:10",40999,4,3008809,"5ec771e68288e91bf1919096","Firefox 85.0","retrieval_b3",3,"SS3",29,1022,2,1,1,0,"spatial_trial","SS3",3,4,"rand","pet store.png",5,2,NA,NA,NA,NA,NA,"boar.png",2,NA
"09/02/2021 22:22:18","09/02/2021 17:22:16",40999,4,3008809,"5ec771e68288e91bf1919096","Firefox 85.0","retrieval_b3",3,"SS3",20,5250,1,1,0,0,"spatial_trial","SS3",3,2,"pred","grocery store.png",2,2,NA,NA,NA,NA,NA,"watermelon.png",2,NA
"09/02/2021 22:22:21","09/02/2021 17:22:19",40999,4,3008809,"5ec771e68288e91bf1919096","Firefox 85.0","retrieval_b3",3,"SS3",19,1531,2,1,0,0,"spatial_trial","SS3",3,2,"pred","grocery store.png",1,3,NA,NA,NA,NA,NA,"ravioli.png",3,NA
"09/02/2021 22:25:43","09/02/2021 17:25:41",40999,4,3008809,"5ec771e68288e91bf1919096","Firefox 85.0","retrieval_b4",3,"SS3",26,4589,4,1,0,0,"spatial_trial","SS3",4,4,"rand","pet store.png",2,1,NA,NA,NA,NA,NA,"hippo.png",1,NA
"09/02/2021 22:25:48","09/02/2021 17:25:46",40999,4,3008809,"5ec771e68288e91bf1919096","Firefox 85.0","retrieval_b4",3,"SS3",19,3452,3,1,1,0,"spatial_trial","SS3",4,3,"pred","grocery store.png",1,3,NA,NA,NA,NA,NA,"oliveoil.png",3,NA
"09/02/2021 22:25:51","09/02/2021 17:25:49",40999,4,3008809,"5ec771e68288e91bf1919096","Firefox 85.0","retrieval_b4",3,"SS3",27,2556,2,1,0,0,"spatial_trial","SS3",4,4,"rand","pet store.png",3,3,NA,NA,NA,NA,NA,"shark.png",3,NA
"09/02/2021 22:25:54","09/02/2021 17:25:52",40999,4,3008809,"5ec771e68288e91bf1919096","Firefox 85.0","retrieval_b4",3,"SS3",20,1434,2,1,1,0,"spatial_trial","SS3",4,3,"pred","grocery store.png",2,2,NA,NA,NA,NA,NA,"croissant.png",2,NA
"09/02/2021 22:25:55","09/02/2021 17:25:54",40999,4,3008809,"5ec771e68288e91bf1919096","Firefox 85.0","retrieval_b4",3,"SS3",23,905,1,1,1,0,"spatial_trial","SS3",4,3,"pred","grocery store.png",5,1,NA,NA,NA,NA,NA,"carrots.png",1,NA
"09/02/2021 22:26:00","09/02/2021 17:25:58",40999,4,3008809,"5ec771e68288e91bf1919096","Firefox 85.0","retrieval_b4",3,"SS3",28,3681,2,1,0,0,"spatial_trial","SS3",4,4,"rand","pet store.png",4,4,NA,NA,NA,NA,NA,"pig.png",4,NA
"09/02/2021 22:26:03","09/02/2021 17:26:00",40999,4,3008809,"5ec771e68288e91bf1919096","Firefox 85.0","retrieval_b4",3,"SS3",25,965,2,1,1,0,"spatial_trial","SS3",4,4,"rand","pet store.png",1,2,NA,NA,NA,NA,NA,"fox.png",2,NA
"09/02/2021 22:26:04","09/02/2021 17:26:02",40999,4,3008809,"5ec771e68288e91bf1919096","Firefox 85.0","retrieval_b4",3,"SS3",24,885,4,1,1,0,"spatial_trial","SS3",4,3,"pred","grocery store.png",6,4,NA,NA,NA,NA,NA,"starfruit.png",4,NA
"09/02/2021 22:26:06","09/02/2021 17:26:04",40999,4,3008809,"5ec771e68288e91bf1919096","Firefox 85.0","retrieval_b4",3,"SS3",22,1237,2,1,1,0,"spatial_trial","SS3",4,3,"pred","grocery store.png",4,2,NA,NA,NA,NA,NA,"dragonfruit.png",2,NA
"09/02/2021 22:26:09","09/02/2021 17:26:07",40999,4,3008809,"5ec771e68288e91bf1919096","Firefox 85.0","retrieval_b4",3,"SS3",21,1576,4,1,1,0,"spatial_trial","SS3",4,3,"pred","grocery store.png",3,4,NA,NA,NA,NA,NA,"hotdog.png",4,NA
"09/02/2021 22:26:13","09/02/2021 17:26:11",40999,4,3008809,"5ec771e68288e91bf1919096","Firefox 85.0","retrieval_b4",3,"SS3",30,3194,3,1,0,0,"spatial_trial","SS3",4,4,"rand","pet store.png",6,1,NA,NA,NA,NA,NA,"cow.png",1,NA
"09/02/2021 22:26:16","09/02/2021 17:26:15",40999,4,3008809,"5ec771e68288e91bf1919096","Firefox 85.0","retrieval_b4",3,"SS3",29,2377,1,1,0,0,"spatial_trial","SS3",4,4,"rand","pet store.png",5,3,NA,NA,NA,NA,NA,"seahorse.png",3,NA
"09/02/2021 22:29:38","09/02/2021 17:29:36",40999,4,3008809,"5ec771e68288e91bf1919096","Firefox 85.0","retrieval_b5",3,"SS3",29,4301,3,1,0,0,"spatial_trial","SS3",5,2,"rand","pet store.png",5,4,NA,NA,NA,NA,NA,"goat.png",4,NA
"09/02/2021 22:29:41","09/02/2021 17:29:39",40999,4,3008809,"5ec771e68288e91bf1919096","Firefox 85.0","retrieval_b5",3,"SS3",22,1673,3,1,0,0,"spatial_trial","SS3",5,4,"pred","grocery store.png",4,2,NA,NA,NA,NA,NA,"taco.png",2,NA
"09/02/2021 22:29:43","09/02/2021 17:29:41",40999,4,3008809,"5ec771e68288e91bf1919096","Firefox 85.0","retrieval_b5",3,"SS3",30,1036,1,1,1,0,"spatial_trial","SS3",5,2,"rand","pet store.png",6,1,NA,NA,NA,NA,NA,"crocodile.png",1,NA
"09/02/2021 22:29:45","09/02/2021 17:29:43",40999,4,3008809,"5ec771e68288e91bf1919096","Firefox 85.0","retrieval_b5",3,"SS3",26,1468,1,1,1,0,"spatial_trial","SS3",5,2,"rand","pet store.png",2,1,NA,NA,NA,NA,NA,"cuttlefish.png",1,NA
"09/02/2021 22:29:48","09/02/2021 17:29:46",40999,4,3008809,"5ec771e68288e91bf1919096","Firefox 85.0","retrieval_b5",3,"SS3",21,1379,2,1,0,0,"spatial_trial","SS3",5,4,"pred","grocery store.png",3,4,NA,NA,NA,NA,NA,"apple.png",4,NA
"09/02/2021 22:29:53","09/02/2021 17:29:51",40999,4,3008809,"5ec771e68288e91bf1919096","Firefox 85.0","retrieval_b5",3,"SS3",27,3907,3,1,0,0,"spatial_trial","SS3",5,2,"rand","pet store.png",3,4,NA,NA,NA,NA,NA,"cardinal.png",4,NA
"09/02/2021 22:29:55","09/02/2021 17:29:53",40999,4,3008809,"5ec771e68288e91bf1919096","Firefox 85.0","retrieval_b5",3,"SS3",19,1369,2,1,0,0,"spatial_trial","SS3",5,4,"pred","grocery store.png",1,3,NA,NA,NA,NA,NA,"cabbage.png",3,NA
"09/02/2021 22:29:57","09/02/2021 17:29:55",40999,4,3008809,"5ec771e68288e91bf1919096","Firefox 85.0","retrieval_b5",3,"SS3",28,869,3,1,1,0,"spatial_trial","SS3",5,2,"rand","pet store.png",4,3,NA,NA,NA,NA,NA,"crow.png",3,NA
"09/02/2021 22:30:01","09/02/2021 17:29:59",40999,4,3008809,"5ec771e68288e91bf1919096","Firefox 85.0","retrieval_b5",3,"SS3",23,3458,1,1,1,0,"spatial_trial","SS3",5,4,"pred","grocery store.png",5,1,NA,NA,NA,NA,NA,"corn.png",1,NA
"09/02/2021 22:30:03","09/02/2021 17:30:01",40999,4,3008809,"5ec771e68288e91bf1919096","Firefox 85.0","retrieval_b5",3,"SS3",24,805,4,1,1,0,"spatial_trial","SS3",5,4,"pred","grocery store.png",6,4,NA,NA,NA,NA,NA,"nachos.png",4,NA
"09/02/2021 22:30:05","09/02/2021 17:30:03",40999,4,3008809,"5ec771e68288e91bf1919096","Firefox 85.0","retrieval_b5",3,"SS3",20,812,2,1,1,0,"spatial_trial","SS3",5,4,"pred","grocery store.png",2,2,NA,NA,NA,NA,NA,"cereal.png",2,NA
"09/02/2021 22:30:07","09/02/2021 17:30:05",40999,4,3008809,"5ec771e68288e91bf1919096","Firefox 85.0","retrieval_b5",3,"SS3",25,898,2,1,1,0,"spatial_trial","SS3",5,2,"rand","pet store.png",1,2,NA,NA,NA,NA,NA,"pelican.png",2,NA
"09/02/2021 22:33:18","09/02/2021 17:33:16",40999,4,3008809,"5ec771e68288e91bf1919096","Firefox 85.0","retrieval_b6",3,"SS3",26,3168,3,1,0,0,"spatial_trial","SS3",6,1,"rand","pet store.png",2,4,NA,NA,NA,NA,NA,"rat.png",4,NA
"09/02/2021 22:33:20","09/02/2021 17:33:18",40999,4,3008809,"5ec771e68288e91bf1919096","Firefox 85.0","retrieval_b6",3,"SS3",22,1729,2,1,1,0,"spatial_trial","SS3",6,2,"pred","grocery store.png",4,2,NA,NA,NA,NA,NA,"edamame.png",2,NA
"09/02/2021 22:33:26","09/02/2021 17:33:24",40999,4,3008809,"5ec771e68288e91bf1919096","Firefox 85.0","retrieval_b6",3,"SS3",30,4985,1,1,0,0,"spatial_trial","SS3",6,1,"rand","pet store.png",6,3,NA,NA,NA,NA,NA,"chimp.png",3,NA
"09/02/2021 22:33:30","09/02/2021 17:33:28",40999,4,3008809,"5ec771e68288e91bf1919096","Firefox 85.0","retrieval_b6",3,"SS3",28,2523,3,1,1,0,"spatial_trial","SS3",6,1,"rand","pet store.png",4,3,NA,NA,NA,NA,NA,"giraffe.png",3,NA
"09/02/2021 22:33:33","09/02/2021 17:33:31",40999,4,3008809,"5ec771e68288e91bf1919096","Firefox 85.0","retrieval_b6",3,"SS3",19,2081,3,1,1,0,"spatial_trial","SS3",6,2,"pred","grocery store.png",1,3,NA,NA,NA,NA,NA,"pie.png",3,NA
"09/02/2021 22:33:35","09/02/2021 17:33:33",40999,4,3008809,"5ec771e68288e91bf1919096","Firefox 85.0","retrieval_b6",3,"SS3",27,1231,2,1,0,0,"spatial_trial","SS3",6,1,"rand","pet store.png",3,1,NA,NA,NA,NA,NA,"turkey.png",1,NA
"09/02/2021 22:33:37","09/02/2021 17:33:35",40999,4,3008809,"5ec771e68288e91bf1919096","Firefox 85.0","retrieval_b6",3,"SS3",20,935,2,1,1,0,"spatial_trial","SS3",6,2,"pred","grocery store.png",2,2,NA,NA,NA,NA,NA,"cinnamon.png",2,NA
"09/02/2021 22:33:40","09/02/2021 17:33:38",40999,4,3008809,"5ec771e68288e91bf1919096","Firefox 85.0","retrieval_b6",3,"SS3",23,1694,1,1,1,0,"spatial_trial","SS3",6,2,"pred","grocery store.png",5,1,NA,NA,NA,NA,NA,"cupcake.png",1,NA
"09/02/2021 22:33:42","09/02/2021 17:33:40",40999,4,3008809,"5ec771e68288e91bf1919096","Firefox 85.0","retrieval_b6",3,"SS3",29,836,4,1,1,0,"spatial_trial","SS3",6,1,"rand","pet store.png",5,4,NA,NA,NA,NA,NA,"tortoise.png",4,NA
"09/02/2021 22:33:43","09/02/2021 17:33:42",40999,4,3008809,"5ec771e68288e91bf1919096","Firefox 85.0","retrieval_b6",3,"SS3",24,869,4,1,1,0,"spatial_trial","SS3",6,2,"pred","grocery store.png",6,4,NA,NA,NA,NA,NA,"raspberries.png",4,NA
"09/02/2021 22:33:45","09/02/2021 17:33:43",40999,4,3008809,"5ec771e68288e91bf1919096","Firefox 85.0","retrieval_b6",3,"SS3",25,904,3,1,0,0,"spatial_trial","SS3",6,1,"rand","pet store.png",1,2,NA,NA,NA,NA,NA,"moose.png",2,NA
"09/02/2021 22:33:47","09/02/2021 17:33:45",40999,4,3008809,"5ec771e68288e91bf1919096","Firefox 85.0","retrieval_b6",3,"SS3",21,869,4,1,1,0,"spatial_trial","SS3",6,2,"pred","grocery store.png",3,4,NA,NA,NA,NA,NA,"chocolatemilk.png",4,NA
"09/02/2021 22:37:15","09/02/2021 17:37:13",40999,4,3008809,"5ec771e68288e91bf1919096","Firefox 85.0","retrieval_b7",3,"SS3",30,2328,3,1,1,0,"spatial_trial","SS3",7,3,"rand","pet store.png",6,3,NA,NA,NA,NA,NA,"llama.png",3,NA
"09/02/2021 22:37:17","09/02/2021 17:37:15",40999,4,3008809,"5ec771e68288e91bf1919096","Firefox 85.0","retrieval_b7",3,"SS3",29,1172,2,1,1,0,"spatial_trial","SS3",7,3,"rand","pet store.png",5,2,NA,NA,NA,NA,NA,"hermitcrab.png",2,NA
"09/02/2021 22:37:19","09/02/2021 17:37:17",40999,4,3008809,"5ec771e68288e91bf1919096","Firefox 85.0","retrieval_b7",3,"SS3",21,901,4,1,1,0,"spatial_trial","SS3",7,1,"pred","grocery store.png",3,4,NA,NA,NA,NA,NA,"bellpeppers.png",4,NA
"09/02/2021 22:37:21","09/02/2021 17:37:19",40999,4,3008809,"5ec771e68288e91bf1919096","Firefox 85.0","retrieval_b7",3,"SS3",23,892,1,1,1,0,"spatial_trial","SS3",7,1,"pred","grocery store.png",5,1,NA,NA,NA,NA,NA,"dumplings.png",1,NA
"09/02/2021 22:37:23","09/02/2021 17:37:21",40999,4,3008809,"5ec771e68288e91bf1919096","Firefox 85.0","retrieval_b7",3,"SS3",27,1497,2,1,1,0,"spatial_trial","SS3",7,3,"rand","pet store.png",3,2,NA,NA,NA,NA,NA,"squid.png",2,NA
"09/02/2021 22:37:26","09/02/2021 17:37:24",40999,4,3008809,"5ec771e68288e91bf1919096","Firefox 85.0","retrieval_b7",3,"SS3",24,1843,4,1,1,0,"spatial_trial","SS3",7,1,"pred","grocery store.png",6,4,NA,NA,NA,NA,NA,"bakedpotato.png",4,NA
"09/02/2021 22:37:28","09/02/2021 17:37:26",40999,4,3008809,"5ec771e68288e91bf1919096","Firefox 85.0","retrieval_b7",3,"SS3",26,1167,3,1,1,0,"spatial_trial","SS3",7,3,"rand","pet store.png",2,3,NA,NA,NA,NA,NA,"toucan.png",3,NA
"09/02/2021 22:37:30","09/02/2021 17:37:29",40999,4,3008809,"5ec771e68288e91bf1919096","Firefox 85.0","retrieval_b7",3,"SS3",20,1152,2,1,1,0,"spatial_trial","SS3",7,1,"pred","grocery store.png",2,2,NA,NA,NA,NA,NA,"chocolate.png",2,NA
"09/02/2021 22:37:32","09/02/2021 17:37:31",40999,4,3008809,"5ec771e68288e91bf1919096","Firefox 85.0","retrieval_b7",3,"SS3",19,962,3,1,1,0,"spatial_trial","SS3",7,1,"pred","grocery store.png",1,3,NA,NA,NA,NA,NA,"pizza.png",3,NA
"09/02/2021 22:37:35","09/02/2021 17:37:33",40999,4,3008809,"5ec771e68288e91bf1919096","Firefox 85.0","retrieval_b7",3,"SS3",28,1875,4,1,1,0,"spatial_trial","SS3",7,3,"rand","pet store.png",4,4,NA,NA,NA,NA,NA,"manatee.png",4,NA
"09/02/2021 22:37:38","09/02/2021 17:37:36",40999,4,3008809,"5ec771e68288e91bf1919096","Firefox 85.0","retrieval_b7",3,"SS3",22,1295,1,1,0,0,"spatial_trial","SS3",7,1,"pred","grocery store.png",4,2,NA,NA,NA,NA,NA,"popcorn.png",2,NA
"09/02/2021 22:37:41","09/02/2021 17:37:39",40999,4,3008809,"5ec771e68288e91bf1919096","Firefox 85.0","retrieval_b7",3,"SS3",25,2462,2,1,0,0,"spatial_trial","SS3",7,3,"rand","pet store.png",1,1,NA,NA,NA,NA,NA,"rabbit.png",1,NA
"09/02/2021 22:41:13","09/02/2021 17:41:11",40999,4,3008809,"5ec771e68288e91bf1919096","Firefox 85.0","retrieval_b8",3,"SS3",28,3144,1,1,1,0,"spatial_trial","SS3",8,1,"rand","pet store.png",4,1,NA,NA,NA,NA,NA,"bloodhound.png",1,NA
"09/02/2021 22:41:15","09/02/2021 17:41:13",40999,4,3008809,"5ec771e68288e91bf1919096","Firefox 85.0","retrieval_b8",3,"SS3",24,1225,4,1,1,0,"spatial_trial","SS3",8,3,"pred","grocery store.png",6,4,NA,NA,NA,NA,NA,"gummybears.png",4,NA
"09/02/2021 22:41:17","09/02/2021 17:41:15",40999,4,3008809,"5ec771e68288e91bf1919096","Firefox 85.0","retrieval_b8",3,"SS3",25,1085,4,1,1,0,"spatial_trial","SS3",8,1,"rand","pet store.png",1,4,NA,NA,NA,NA,NA,"kangaroo.png",4,NA
"09/02/2021 22:41:19","09/02/2021 17:41:17",40999,4,3008809,"5ec771e68288e91bf1919096","Firefox 85.0","retrieval_b8",3,"SS3",20,904,3,1,0,0,"spatial_trial","SS3",8,3,"pred","grocery store.png",2,2,NA,NA,NA,NA,NA,"mushrooms.png",2,NA
"09/02/2021 22:41:21","09/02/2021 17:41:19",40999,4,3008809,"5ec771e68288e91bf1919096","Firefox 85.0","retrieval_b8",3,"SS3",22,1075,2,1,1,0,"spatial_trial","SS3",8,3,"pred","grocery store.png",4,2,NA,NA,NA,NA,NA,"hummus.png",2,NA
"09/02/2021 22:41:23","09/02/2021 17:41:21",40999,4,3008809,"5ec771e68288e91bf1919096","Firefox 85.0","retrieval_b8",3,"SS3",23,854,1,1,1,0,"spatial_trial","SS3",8,3,"pred","grocery store.png",5,1,NA,NA,NA,NA,NA,"garlic.png",1,NA
"09/02/2021 22:41:26","09/02/2021 17:41:24",40999,4,3008809,"5ec771e68288e91bf1919096","Firefox 85.0","retrieval_b8",3,"SS3",19,1683,2,1,0,0,"spatial_trial","SS3",8,3,"pred","grocery store.png",1,3,NA,NA,NA,NA,NA,"jalapeno.png",3,NA
"09/02/2021 22:41:28","09/02/2021 17:41:26",40999,4,3008809,"5ec771e68288e91bf1919096","Firefox 85.0","retrieval_b8",3,"SS3",21,846,4,1,1,0,"spatial_trial","SS3",8,3,"pred","grocery store.png",3,4,NA,NA,NA,NA,NA,"smores.png",4,NA
"09/02/2021 22:41:32","09/02/2021 17:41:30",40999,4,3008809,"5ec771e68288e91bf1919096","Firefox 85.0","retrieval_b8",3,"SS3",29,3048,1,1,0,0,"spatial_trial","SS3",8,1,"rand","pet store.png",5,2,NA,NA,NA,NA,NA,"toad.png",2,NA
"09/02/2021 22:41:34","09/02/2021 17:41:32",40999,4,3008809,"5ec771e68288e91bf1919096","Firefox 85.0","retrieval_b8",3,"SS3",27,1099,2,1,0,0,"spatial_trial","SS3",8,1,"rand","pet store.png",3,3,NA,NA,NA,NA,NA,"turtle.png",3,NA
"09/02/2021 22:41:36","09/02/2021 17:41:34",40999,4,3008809,"5ec771e68288e91bf1919096","Firefox 85.0","retrieval_b8",3,"SS3",30,748,1,1,1,0,"spatial_trial","SS3",8,1,"rand","pet store.png",6,1,NA,NA,NA,NA,NA,"goose.png",1,NA
"09/02/2021 22:41:38","09/02/2021 17:41:36",40999,4,3008809,"5ec771e68288e91bf1919096","Firefox 85.0","retrieval_b8",3,"SS3",26,1349,2,1,1,0,"spatial_trial","SS3",8,1,"rand","pet store.png",2,2,NA,NA,NA,NA,NA,"zebra.png",2,NA
"09/02/2021 22:26:06","09/02/2021 17:26:04",40999,4,3008936,"5efa246d81a512824bc2d703","Chrome 88.0.4324.150","retrieval_b1",4,"SS2",29,2468.52999999828,2,1,1,0,"spatial_trial","SS2",1,1,"rand","grocery store.png",5,2,NA,NA,NA,NA,NA,"watermelon.png",2,NA
"09/02/2021 22:26:08","09/02/2021 17:26:06",40999,4,3008936,"5efa246d81a512824bc2d703","Chrome 88.0.4324.150","retrieval_b1",4,"SS2",19,1513.81499999843,1,1,1,0,"spatial_trial","SS2",1,3,"pred","pet store.png",1,1,NA,NA,NA,NA,NA,"platypus.png",1,NA
"09/02/2021 22:26:10","09/02/2021 17:26:08",40999,4,3008936,"5efa246d81a512824bc2d703","Chrome 88.0.4324.150","retrieval_b1",4,"SS2",28,896.315000005416,1,1,1,0,"spatial_trial","SS2",1,1,"rand","grocery store.png",4,1,NA,NA,NA,NA,NA,"edamame.png",1,NA
"09/02/2021 22:26:12","09/02/2021 17:26:10",40999,4,3008936,"5efa246d81a512824bc2d703","Chrome 88.0.4324.150","retrieval_b1",4,"SS2",25,755.164999995031,4,1,0,0,"spatial_trial","SS2",1,1,"rand","grocery store.png",1,3,NA,NA,NA,NA,NA,"lychee.png",3,NA
"09/02/2021 22:26:16","09/02/2021 17:26:14",40999,4,3008936,"5efa246d81a512824bc2d703","Chrome 88.0.4324.150","retrieval_b1",4,"SS2",23,2635.03499999933,4,1,0,0,"spatial_trial","SS2",1,3,"pred","pet store.png",5,2,NA,NA,NA,NA,NA,"owl.png",2,NA
"09/02/2021 22:26:18","09/02/2021 17:26:16",40999,4,3008936,"5efa246d81a512824bc2d703","Chrome 88.0.4324.150","retrieval_b1",4,"SS2",27,1006.1449999921,4,1,1,0,"spatial_trial","SS2",1,1,"rand","grocery store.png",3,4,NA,NA,NA,NA,NA,"granola.png",4,NA
"09/02/2021 22:26:20","09/02/2021 17:26:18",40999,4,3008936,"5efa246d81a512824bc2d703","Chrome 88.0.4324.150","retrieval_b1",4,"SS2",21,1409.67000000819,3,1,1,0,"spatial_trial","SS2",1,3,"pred","pet store.png",3,3,NA,NA,NA,NA,NA,"parrot.png",3,NA
"09/02/2021 22:26:22","09/02/2021 17:26:20",40999,4,3008936,"5efa246d81a512824bc2d703","Chrome 88.0.4324.150","retrieval_b1",4,"SS2",30,654.175000003306,1,1,1,0,"spatial_trial","SS2",1,1,"rand","grocery store.png",6,1,NA,NA,NA,NA,NA,"cake.png",1,NA
"09/02/2021 22:26:24","09/02/2021 17:26:22",40999,4,3008936,"5efa246d81a512824bc2d703","Chrome 88.0.4324.150","retrieval_b1",4,"SS2",22,982.829999993555,4,1,1,0,"spatial_trial","SS2",1,3,"pred","pet store.png",4,4,NA,NA,NA,NA,NA,"shark.png",4,NA
"09/02/2021 22:26:26","09/02/2021 17:26:24",40999,4,3008936,"5efa246d81a512824bc2d703","Chrome 88.0.4324.150","retrieval_b1",4,"SS2",24,1130.26000000536,3,1,1,0,"spatial_trial","SS2",1,3,"pred","pet store.png",6,3,NA,NA,NA,NA,NA,"goose.png",3,NA
"09/02/2021 22:26:28","09/02/2021 17:26:26",40999,4,3008936,"5efa246d81a512824bc2d703","Chrome 88.0.4324.150","retrieval_b1",4,"SS2",26,1164.78000000643,2,1,1,0,"spatial_trial","SS2",1,1,"rand","grocery store.png",2,2,NA,NA,NA,NA,NA,"smores.png",2,NA
"09/02/2021 22:26:30","09/02/2021 17:26:29",40999,4,3008936,"5efa246d81a512824bc2d703","Chrome 88.0.4324.150","retrieval_b1",4,"SS2",20,1334.28000001004,3,1,0,0,"spatial_trial","SS2",1,3,"pred","pet store.png",2,4,NA,NA,NA,NA,NA,"dragonfly.png",4,NA
"09/02/2021 22:29:46","09/02/2021 17:29:44",40999,4,3008936,"5efa246d81a512824bc2d703","Chrome 88.0.4324.150","retrieval_b2",3,"SS2",20,2586.91499999259,1,1,0,0,"spatial_trial","SS2",2,1,"pred","pet store.png",2,4,NA,NA,NA,NA,NA,"goldenretriever.png",4,NA
"09/02/2021 22:29:49","09/02/2021 17:29:47",40999,4,3008936,"5efa246d81a512824bc2d703","Chrome 88.0.4324.150","retrieval_b2",3,"SS2",29,2204.08500000485,1,1,0,0,"spatial_trial","SS2",2,2,"rand","grocery store.png",5,4,NA,NA,NA,NA,NA,"clams.png",4,NA
"09/02/2021 22:29:52","09/02/2021 17:29:50",40999,4,3008936,"5efa246d81a512824bc2d703","Chrome 88.0.4324.150","retrieval_b2",3,"SS2",25,1566.41999998828,3,1,1,0,"spatial_trial","SS2",2,2,"rand","grocery store.png",1,3,NA,NA,NA,NA,NA,"brusselsprouts.png",3,NA
"09/02/2021 22:29:54","09/02/2021 17:29:52",40999,4,3008936,"5efa246d81a512824bc2d703","Chrome 88.0.4324.150","retrieval_b2",3,"SS2",24,1518.8199999975,3,1,1,0,"spatial_trial","SS2",2,1,"pred","pet store.png",6,3,NA,NA,NA,NA,NA,"rhino.png",3,NA
"09/02/2021 22:29:57","09/02/2021 17:29:55",40999,4,3008936,"5efa246d81a512824bc2d703","Chrome 88.0.4324.150","retrieval_b2",3,"SS2",23,1245.92000000121,2,1,1,0,"spatial_trial","SS2",2,1,"pred","pet store.png",5,2,NA,NA,NA,NA,NA,"hedgehog.png",2,NA
"09/02/2021 22:29:59","09/02/2021 17:29:57",40999,4,3008936,"5efa246d81a512824bc2d703","Chrome 88.0.4324.150","retrieval_b2",3,"SS2",22,958.090000000084,4,1,1,0,"spatial_trial","SS2",2,1,"pred","pet store.png",4,4,NA,NA,NA,NA,NA,"snake.png",4,NA
"09/02/2021 22:30:01","09/02/2021 17:29:59",40999,4,3008936,"5efa246d81a512824bc2d703","Chrome 88.0.4324.150","retrieval_b2",3,"SS2",28,885.360000000219,1,1,1,0,"spatial_trial","SS2",2,2,"rand","grocery store.png",4,1,NA,NA,NA,NA,NA,"cheese.png",1,NA
"09/02/2021 22:30:02","09/02/2021 17:30:01",40999,4,3008936,"5efa246d81a512824bc2d703","Chrome 88.0.4324.150","retrieval_b2",3,"SS2",19,916.784999993979,1,1,1,0,"spatial_trial","SS2",2,1,"pred","pet store.png",1,1,NA,NA,NA,NA,NA,"elephant.png",1,NA
"09/02/2021 22:30:05","09/02/2021 17:30:03",40999,4,3008936,"5efa246d81a512824bc2d703","Chrome 88.0.4324.150","retrieval_b2",3,"SS2",27,1226.06499999529,2,1,1,0,"spatial_trial","SS2",2,2,"rand","grocery store.png",3,2,NA,NA,NA,NA,NA,"bread.png",2,NA
"09/02/2021 22:30:07","09/02/2021 17:30:05",40999,4,3008936,"5efa246d81a512824bc2d703","Chrome 88.0.4324.150","retrieval_b2",3,"SS2",26,990.274999989197,4,1,1,0,"spatial_trial","SS2",2,2,"rand","grocery store.png",2,4,NA,NA,NA,NA,NA,"kiwi.png",4,NA
"09/02/2021 22:30:09","09/02/2021 17:30:07",40999,4,3008936,"5efa246d81a512824bc2d703","Chrome 88.0.4324.150","retrieval_b2",3,"SS2",21,1099.58000000915,3,1,1,0,"spatial_trial","SS2",2,1,"pred","pet store.png",3,3,NA,NA,NA,NA,NA,"turkey.png",3,NA
"09/02/2021 22:30:11","09/02/2021 17:30:09",40999,4,3008936,"5efa246d81a512824bc2d703","Chrome 88.0.4324.150","retrieval_b2",3,"SS2",30,1187.07499999437,2,1,0,0,"spatial_trial","SS2",2,2,"rand","grocery store.png",6,1,NA,NA,NA,NA,NA,"bagel.png",1,NA
"09/02/2021 22:34:29","09/02/2021 17:34:28",40999,4,3008936,"5efa246d81a512824bc2d703","Chrome 88.0.4324.150","retrieval_b3",3,"SS2",20,1271.52000000933,4,1,1,0,"spatial_trial","SS2",3,3,"pred","pet store.png",2,4,NA,NA,NA,NA,NA,"snail.png",4,NA
"09/02/2021 22:34:31","09/02/2021 17:34:29",40999,4,3008936,"5efa246d81a512824bc2d703","Chrome 88.0.4324.150","retrieval_b3",3,"SS2",28,771.950000009383,1,1,1,0,"spatial_trial","SS2",3,4,"rand","grocery store.png",4,1,NA,NA,NA,NA,NA,"poutine.png",1,NA
"09/02/2021 22:34:33","09/02/2021 17:34:31",40999,4,3008936,"5efa246d81a512824bc2d703","Chrome 88.0.4324.150","retrieval_b3",3,"SS2",25,803.92999999458,4,1,1,0,"spatial_trial","SS2",3,4,"rand","grocery store.png",1,4,NA,NA,NA,NA,NA,"guava.png",4,NA
"09/02/2021 22:34:37","09/02/2021 17:34:35",40999,4,3008936,"5efa246d81a512824bc2d703","Chrome 88.0.4324.150","retrieval_b3",3,"SS2",24,2548.12000000675,2,1,0,0,"spatial_trial","SS2",3,3,"pred","pet store.png",6,3,NA,NA,NA,NA,NA,"octopus.png",3,NA
"09/02/2021 22:34:39","09/02/2021 17:34:37",40999,4,3008936,"5efa246d81a512824bc2d703","Chrome 88.0.4324.150","retrieval_b3",3,"SS2",26,958.650000000489,2,1,1,0,"spatial_trial","SS2",3,4,"rand","grocery store.png",2,2,NA,NA,NA,NA,NA,"chocolate.png",2,NA
"09/02/2021 22:34:41","09/02/2021 17:34:39",40999,4,3008936,"5efa246d81a512824bc2d703","Chrome 88.0.4324.150","retrieval_b3",3,"SS2",29,1003.86500000604,1,1,0,0,"spatial_trial","SS2",3,4,"rand","grocery store.png",5,2,NA,NA,NA,NA,NA,"acaibowl.png",2,NA
"09/02/2021 22:34:43","09/02/2021 17:34:41",40999,4,3008936,"5efa246d81a512824bc2d703","Chrome 88.0.4324.150","retrieval_b3",3,"SS2",19,1013.37000000058,1,1,1,0,"spatial_trial","SS2",3,3,"pred","pet store.png",1,1,NA,NA,NA,NA,NA,"frog.png",1,NA
"09/02/2021 22:34:46","09/02/2021 17:34:44",40999,4,3008936,"5efa246d81a512824bc2d703","Chrome 88.0.4324.150","retrieval_b3",3,"SS2",27,1841.99500000977,3,1,1,0,"spatial_trial","SS2",3,4,"rand","grocery store.png",3,3,NA,NA,NA,NA,NA,"chocolatemilk.png",3,NA
"09/02/2021 22:34:48","09/02/2021 17:34:46",40999,4,3008936,"5efa246d81a512824bc2d703","Chrome 88.0.4324.150","retrieval_b3",3,"SS2",23,1159.71000000718,2,1,1,0,"spatial_trial","SS2",3,3,"pred","pet store.png",5,2,NA,NA,NA,NA,NA,"surgeonfish.png",2,NA
"09/02/2021 22:34:50","09/02/2021 17:34:48",40999,4,3008936,"5efa246d81a512824bc2d703","Chrome 88.0.4324.150","retrieval_b3",3,"SS2",21,1261.77000001189,3,1,1,0,"spatial_trial","SS2",3,3,"pred","pet store.png",3,3,NA,NA,NA,NA,NA,"hippo.png",3,NA
"09/02/2021 22:34:52","09/02/2021 17:34:50",40999,4,3008936,"5efa246d81a512824bc2d703","Chrome 88.0.4324.150","retrieval_b3",3,"SS2",22,938.18499999179,4,1,1,0,"spatial_trial","SS2",3,3,"pred","pet store.png",4,4,NA,NA,NA,NA,NA,"iguana.png",4,NA
"09/02/2021 22:34:54","09/02/2021 17:34:52",40999,4,3008936,"5efa246d81a512824bc2d703","Chrome 88.0.4324.150","retrieval_b3",3,"SS2",30,830.91499999864,1,1,1,0,"spatial_trial","SS2",3,4,"rand","grocery store.png",6,1,NA,NA,NA,NA,NA,"beet.png",1,NA
"09/02/2021 22:38:10","09/02/2021 17:38:08",40999,4,3008936,"5efa246d81a512824bc2d703","Chrome 88.0.4324.150","retrieval_b4",3,"SS2",26,3440.06500000251,1,1,0,0,"spatial_trial","SS2",4,3,"rand","grocery store.png",2,4,NA,NA,NA,NA,NA,"broccoli.png",4,NA
"09/02/2021 22:38:12","09/02/2021 17:38:11",40999,4,3008936,"5efa246d81a512824bc2d703","Chrome 88.0.4324.150","retrieval_b4",3,"SS2",30,1161.5199999942,1,1,1,0,"spatial_trial","SS2",4,3,"rand","grocery store.png",6,1,NA,NA,NA,NA,NA,"icecreamsandwich.png",1,NA
"09/02/2021 22:38:14","09/02/2021 17:38:13",40999,4,3008936,"5efa246d81a512824bc2d703","Chrome 88.0.4324.150","retrieval_b4",3,"SS2",28,976.330000004964,2,1,0,0,"spatial_trial","SS2",4,3,"rand","grocery store.png",4,1,NA,NA,NA,NA,NA,"cabbage.png",1,NA
"09/02/2021 22:38:16","09/02/2021 17:38:15",40999,4,3008936,"5efa246d81a512824bc2d703","Chrome 88.0.4324.150","retrieval_b4",3,"SS2",27,929.189999995288,4,1,0,0,"spatial_trial","SS2",4,3,"rand","grocery store.png",3,3,NA,NA,NA,NA,NA,"pie.png",3,NA
"09/02/2021 22:38:18","09/02/2021 17:38:16",40999,4,3008936,"5efa246d81a512824bc2d703","Chrome 88.0.4324.150","retrieval_b4",3,"SS2",23,863.440000000992,3,1,0,0,"spatial_trial","SS2",4,4,"pred","pet store.png",5,2,NA,NA,NA,NA,NA,"tiger.png",2,NA
"09/02/2021 22:38:20","09/02/2021 17:38:19",40999,4,3008936,"5efa246d81a512824bc2d703","Chrome 88.0.4324.150","retrieval_b4",3,"SS2",25,1109.62000000291,2,1,1,0,"spatial_trial","SS2",4,3,"rand","grocery store.png",1,2,NA,NA,NA,NA,NA,"pineapple.png",2,NA
"09/02/2021 22:38:23","09/02/2021 17:38:21",40999,4,3008936,"5efa246d81a512824bc2d703","Chrome 88.0.4324.150","retrieval_b4",3,"SS2",29,1883.08500000858,3,1,0,0,"spatial_trial","SS2",4,3,"rand","grocery store.png",5,4,NA,NA,NA,NA,NA,"mustard.png",4,NA
"09/02/2021 22:38:25","09/02/2021 17:38:24",40999,4,3008936,"5efa246d81a512824bc2d703","Chrome 88.0.4324.150","retrieval_b4",3,"SS2",20,1143.75000000291,4,1,1,0,"spatial_trial","SS2",4,4,"pred","pet store.png",2,4,NA,NA,NA,NA,NA,"pug.png",4,NA
"09/02/2021 22:38:28","09/02/2021 17:38:26",40999,4,3008936,"5efa246d81a512824bc2d703","Chrome 88.0.4324.150","retrieval_b4",3,"SS2",24,1207.03499999945,3,1,1,0,"spatial_trial","SS2",4,4,"pred","pet store.png",6,3,NA,NA,NA,NA,NA,"whale.png",3,NA
"09/02/2021 22:38:30","09/02/2021 17:38:28",40999,4,3008936,"5efa246d81a512824bc2d703","Chrome 88.0.4324.150","retrieval_b4",3,"SS2",19,1153.31999999762,1,1,1,0,"spatial_trial","SS2",4,4,"pred","pet store.png",1,1,NA,NA,NA,NA,NA,"polarbear.png",1,NA
"09/02/2021 22:38:32","09/02/2021 17:38:30",40999,4,3008936,"5efa246d81a512824bc2d703","Chrome 88.0.4324.150","retrieval_b4",3,"SS2",22,1073.91000000644,4,1,1,0,"spatial_trial","SS2",4,4,"pred","pet store.png",4,4,NA,NA,NA,NA,NA,"badger.png",4,NA
"09/02/2021 22:38:34","09/02/2021 17:38:32",40999,4,3008936,"5efa246d81a512824bc2d703","Chrome 88.0.4324.150","retrieval_b4",3,"SS2",21,884.705000004033,2,1,0,0,"spatial_trial","SS2",4,4,"pred","pet store.png",3,3,NA,NA,NA,NA,NA,"armadillo.png",3,NA
"09/02/2021 22:41:49","09/02/2021 17:41:48",40999,4,3008936,"5efa246d81a512824bc2d703","Chrome 88.0.4324.150","retrieval_b5",3,"SS2",30,3657.9700000002,2,1,1,0,"spatial_trial","SS2",5,4,"rand","grocery store.png",6,2,NA,NA,NA,NA,NA,"milk.png",2,NA
"09/02/2021 22:41:53","09/02/2021 17:41:51",40999,4,3008936,"5efa246d81a512824bc2d703","Chrome 88.0.4324.150","retrieval_b5",3,"SS2",26,2121.78999999014,4,1,1,0,"spatial_trial","SS2",5,4,"rand","grocery store.png",2,4,NA,NA,NA,NA,NA,"cookedchicken.png",4,NA
"09/02/2021 22:41:55","09/02/2021 17:41:53",40999,4,3008936,"5efa246d81a512824bc2d703","Chrome 88.0.4324.150","retrieval_b5",3,"SS2",29,1031.93499999179,1,1,1,0,"spatial_trial","SS2",5,4,"rand","grocery store.png",5,1,NA,NA,NA,NA,NA,"jalapeno.png",1,NA
"09/02/2021 22:41:57","09/02/2021 17:41:55",40999,4,3008936,"5efa246d81a512824bc2d703","Chrome 88.0.4324.150","retrieval_b5",3,"SS2",27,1124.94000000879,2,1,1,0,"spatial_trial","SS2",5,4,"rand","grocery store.png",3,2,NA,NA,NA,NA,NA,"celery.png",2,NA
"09/02/2021 22:42:01","09/02/2021 17:41:59",40999,4,3008936,"5efa246d81a512824bc2d703","Chrome 88.0.4324.150","retrieval_b5",3,"SS2",24,2835.86000000651,3,1,1,0,"spatial_trial","SS2",5,2,"pred","pet store.png",6,3,NA,NA,NA,NA,NA,"pelican.png",3,NA
"09/02/2021 22:42:03","09/02/2021 17:42:01",40999,4,3008936,"5efa246d81a512824bc2d703","Chrome 88.0.4324.150","retrieval_b5",3,"SS2",22,1583.03500000329,4,1,1,0,"spatial_trial","SS2",5,2,"pred","pet store.png",4,4,NA,NA,NA,NA,NA,"bison.png",4,NA
"09/02/2021 22:42:05","09/02/2021 17:42:03",40999,4,3008936,"5efa246d81a512824bc2d703","Chrome 88.0.4324.150","retrieval_b5",3,"SS2",20,996.350000001257,4,1,1,0,"spatial_trial","SS2",5,2,"pred","pet store.png",2,4,NA,NA,NA,NA,NA,"chimp.png",4,NA
"09/02/2021 22:42:08","09/02/2021 17:42:06",40999,4,3008936,"5efa246d81a512824bc2d703","Chrome 88.0.4324.150","retrieval_b5",3,"SS2",23,1500.07999999798,3,1,0,0,"spatial_trial","SS2",5,2,"pred","pet store.png",5,2,NA,NA,NA,NA,NA,"hummingbird.png",2,NA
"09/02/2021 22:42:15","09/02/2021 17:42:13",40999,4,3008936,"5efa246d81a512824bc2d703","Chrome 88.0.4324.150","retrieval_b5",3,"SS2",25,6268.54499999899,3,1,1,0,"spatial_trial","SS2",5,4,"rand","grocery store.png",1,3,NA,NA,NA,NA,NA,"cantaloupe.png",3,NA
"09/02/2021 22:42:18","09/02/2021 17:42:16",40999,4,3008936,"5efa246d81a512824bc2d703","Chrome 88.0.4324.150","retrieval_b5",3,"SS2",28,1507.06000000355,4,1,1,0,"spatial_trial","SS2",5,4,"rand","grocery store.png",4,4,NA,NA,NA,NA,NA,"peanutbutter.png",4,NA
"09/02/2021 22:42:21","09/02/2021 17:42:19",40999,4,3008936,"5efa246d81a512824bc2d703","Chrome 88.0.4324.150","retrieval_b5",3,"SS2",21,2115.4899999965,3,1,1,0,"spatial_trial","SS2",5,2,"pred","pet store.png",3,3,NA,NA,NA,NA,NA,"hammerheadshark.png",3,NA
"09/02/2021 22:42:23","09/02/2021 17:42:21",40999,4,3008936,"5efa246d81a512824bc2d703","Chrome 88.0.4324.150","retrieval_b5",3,"SS2",19,993.634999991627,4,1,0,0,"spatial_trial","SS2",5,2,"pred","pet store.png",1,1,NA,NA,NA,NA,NA,"rat.png",1,NA
"09/02/2021 22:45:37","09/02/2021 17:45:35",40999,4,3008936,"5efa246d81a512824bc2d703","Chrome 88.0.4324.150","retrieval_b6",3,"SS2",30,2294.22999999952,2,1,1,0,"spatial_trial","SS2",6,1,"rand","grocery store.png",6,2,NA,NA,NA,NA,NA,"honeycomb.png",2,NA
"09/02/2021 22:45:41","09/02/2021 17:45:39",40999,4,3008936,"5efa246d81a512824bc2d703","Chrome 88.0.4324.150","retrieval_b6",3,"SS2",22,2931.75499999779,4,1,1,0,"spatial_trial","SS2",6,2,"pred","pet store.png",4,4,NA,NA,NA,NA,NA,"horse.png",4,NA
"09/02/2021 22:45:44","09/02/2021 17:45:42",40999,4,3008936,"5efa246d81a512824bc2d703","Chrome 88.0.4324.150","retrieval_b6",3,"SS2",21,1862.5699999975,3,1,1,0,"spatial_trial","SS2",6,2,"pred","pet store.png",3,3,NA,NA,NA,NA,NA,"chicken.png",3,NA
"09/02/2021 22:45:47","09/02/2021 17:45:45",40999,4,3008936,"5efa246d81a512824bc2d703","Chrome 88.0.4324.150","retrieval_b6",3,"SS2",28,2555.20499999693,1,1,1,0,"spatial_trial","SS2",6,1,"rand","grocery store.png",4,1,NA,NA,NA,NA,NA,"asparagus.png",1,NA
"09/02/2021 22:45:49","09/02/2021 17:45:47",40999,4,3008936,"5efa246d81a512824bc2d703","Chrome 88.0.4324.150","retrieval_b6",3,"SS2",19,892.739999995683,1,1,1,0,"spatial_trial","SS2",6,2,"pred","pet store.png",1,1,NA,NA,NA,NA,NA,"pig.png",1,NA
"09/02/2021 22:45:52","09/02/2021 17:45:50",40999,4,3008936,"5efa246d81a512824bc2d703","Chrome 88.0.4324.150","retrieval_b6",3,"SS2",20,1795.94999999972,4,1,1,0,"spatial_trial","SS2",6,2,"pred","pet store.png",2,4,NA,NA,NA,NA,NA,"tortoise.png",4,NA
"09/02/2021 22:45:54","09/02/2021 17:45:52",40999,4,3008936,"5efa246d81a512824bc2d703","Chrome 88.0.4324.150","retrieval_b6",3,"SS2",24,1264.48500000697,3,1,1,0,"spatial_trial","SS2",6,2,"pred","pet store.png",6,3,NA,NA,NA,NA,NA,"cat.png",3,NA
"09/02/2021 22:46:01","09/02/2021 17:45:59",40999,4,3008936,"5efa246d81a512824bc2d703","Chrome 88.0.4324.150","retrieval_b6",3,"SS2",25,5592.32499999052,3,1,1,0,"spatial_trial","SS2",6,1,"rand","grocery store.png",1,3,NA,NA,NA,NA,NA,"cereal.png",3,NA
"09/02/2021 22:46:04","09/02/2021 17:46:03",40999,4,3008936,"5efa246d81a512824bc2d703","Chrome 88.0.4324.150","retrieval_b6",3,"SS2",27,2627.82500000321,4,1,1,0,"spatial_trial","SS2",6,1,"rand","grocery store.png",3,4,NA,NA,NA,NA,NA,"croissant.png",4,NA
"09/02/2021 22:46:07","09/02/2021 17:46:06",40999,4,3008936,"5efa246d81a512824bc2d703","Chrome 88.0.4324.150","retrieval_b6",3,"SS2",29,2002.89499999781,4,1,1,0,"spatial_trial","SS2",6,1,"rand","grocery store.png",5,4,NA,NA,NA,NA,NA,"mushrooms.png",4,NA
"09/02/2021 22:46:21","09/02/2021 17:46:19",40999,4,3008936,"5efa246d81a512824bc2d703","Chrome 88.0.4324.150","retrieval_b6",3,"SS2",23,3254.47499999427,2,1,1,0,"spatial_trial","SS2",6,2,"pred","pet store.png",5,2,NA,NA,NA,NA,NA,"canadiangoose.png",2,NA
"09/02/2021 22:49:29","09/02/2021 17:49:27",40999,4,3008936,"5efa246d81a512824bc2d703","Chrome 88.0.4324.150","retrieval_b7",3,"SS2",19,2438.11000000278,1,1,1,0,"spatial_trial","SS2",7,1,"pred","pet store.png",1,1,NA,NA,NA,NA,NA,"killerwhale.png",1,NA
"09/02/2021 22:49:32","09/02/2021 17:49:30",40999,4,3008936,"5efa246d81a512824bc2d703","Chrome 88.0.4324.150","retrieval_b7",3,"SS2",27,1691.4800000086,3,1,1,0,"spatial_trial","SS2",7,3,"rand","grocery store.png",3,3,NA,NA,NA,NA,NA,"onion.png",3,NA
"09/02/2021 22:49:34","09/02/2021 17:49:32",40999,4,3008936,"5efa246d81a512824bc2d703","Chrome 88.0.4324.150","retrieval_b7",3,"SS2",23,1436.92500000179,2,1,1,0,"spatial_trial","SS2",7,1,"pred","pet store.png",5,2,NA,NA,NA,NA,NA,"hermitcrab.png",2,NA
"09/02/2021 22:49:36","09/02/2021 17:49:35",40999,4,3008936,"5efa246d81a512824bc2d703","Chrome 88.0.4324.150","retrieval_b7",3,"SS2",25,1081.98000000266,4,1,1,0,"spatial_trial","SS2",7,3,"rand","grocery store.png",1,4,NA,NA,NA,NA,NA,"coffee.png",4,NA
"09/02/2021 22:49:39","09/02/2021 17:49:37",40999,4,3008936,"5efa246d81a512824bc2d703","Chrome 88.0.4324.150","retrieval_b7",3,"SS2",30,1266.70999999624,1,1,1,0,"spatial_trial","SS2",7,3,"rand","grocery store.png",6,1,NA,NA,NA,NA,NA,"burrito.png",1,NA
"09/02/2021 22:49:42","09/02/2021 17:49:40",40999,4,3008936,"5efa246d81a512824bc2d703","Chrome 88.0.4324.150","retrieval_b7",3,"SS2",24,2500.70499999856,3,1,1,0,"spatial_trial","SS2",7,1,"pred","pet store.png",6,3,NA,NA,NA,NA,NA,"dolphin.png",3,NA
"09/02/2021 22:49:44","09/02/2021 17:49:42",40999,4,3008936,"5efa246d81a512824bc2d703","Chrome 88.0.4324.150","retrieval_b7",3,"SS2",22,1075.54499999969,4,1,1,0,"spatial_trial","SS2",7,1,"pred","pet store.png",4,4,NA,NA,NA,NA,NA,"turtle.png",4,NA
"09/02/2021 22:49:47","09/02/2021 17:49:45",40999,4,3008936,"5efa246d81a512824bc2d703","Chrome 88.0.4324.150","retrieval_b7",3,"SS2",26,1265.5950000044,1,1,1,0,"spatial_trial","SS2",7,3,"rand","grocery store.png",2,1,NA,NA,NA,NA,NA,"cupcake.png",1,NA
"09/02/2021 22:49:50","09/02/2021 17:49:48",40999,4,3008936,"5efa246d81a512824bc2d703","Chrome 88.0.4324.150","retrieval_b7",3,"SS2",21,2258.10999999521,3,1,1,0,"spatial_trial","SS2",7,1,"pred","pet store.png",3,3,NA,NA,NA,NA,NA,"rabbit.png",3,NA
"09/02/2021 22:49:52","09/02/2021 17:49:50",40999,4,3008936,"5efa246d81a512824bc2d703","Chrome 88.0.4324.150","retrieval_b7",3,"SS2",28,1333.54999999574,2,1,1,0,"spatial_trial","SS2",7,3,"rand","grocery store.png",4,2,NA,NA,NA,NA,NA,"cookies.png",2,NA
"09/02/2021 22:49:56","09/02/2021 17:49:54",40999,4,3008936,"5efa246d81a512824bc2d703","Chrome 88.0.4324.150","retrieval_b7",3,"SS2",29,2360.46999999962,3,1,1,0,"spatial_trial","SS2",7,3,"rand","grocery store.png",5,3,NA,NA,NA,NA,NA,"salad.png",3,NA
"09/02/2021 22:49:58","09/02/2021 17:49:56",40999,4,3008936,"5efa246d81a512824bc2d703","Chrome 88.0.4324.150","retrieval_b7",3,"SS2",20,1035.84000001138,4,1,1,0,"spatial_trial","SS2",7,1,"pred","pet store.png",2,4,NA,NA,NA,NA,NA,"bloodhound.png",4,NA
"09/02/2021 22:53:19","09/02/2021 17:53:17",40999,4,3008936,"5efa246d81a512824bc2d703","Chrome 88.0.4324.150","retrieval_b8",3,"SS2",22,2205.67000001029,4,1,1,0,"spatial_trial","SS2",8,4,"pred","pet store.png",4,4,NA,NA,NA,NA,NA,"ladybug.png",4,NA
"09/02/2021 22:53:25","09/02/2021 17:53:23",40999,4,3008936,"5efa246d81a512824bc2d703","Chrome 88.0.4324.150","retrieval_b8",3,"SS2",30,4728.88000000967,2,1,1,0,"spatial_trial","SS2",8,2,"rand","grocery store.png",6,2,NA,NA,NA,NA,NA,"carrots.png",2,NA
"09/02/2021 22:53:27","09/02/2021 17:53:25",40999,4,3008936,"5efa246d81a512824bc2d703","Chrome 88.0.4324.150","retrieval_b8",3,"SS2",26,1349.56000000238,1,1,1,0,"spatial_trial","SS2",8,2,"rand","grocery store.png",2,1,NA,NA,NA,NA,NA,"soup.png",1,NA
"09/02/2021 22:53:29","09/02/2021 17:53:27",40999,4,3008936,"5efa246d81a512824bc2d703","Chrome 88.0.4324.150","retrieval_b8",3,"SS2",23,1145.18500000122,2,1,1,0,"spatial_trial","SS2",8,4,"pred","pet store.png",5,2,NA,NA,NA,NA,NA,"pufferfish.png",2,NA
"09/02/2021 22:53:31","09/02/2021 17:53:30",40999,4,3008936,"5efa246d81a512824bc2d703","Chrome 88.0.4324.150","retrieval_b8",3,"SS2",27,1196.23000000138,2,1,1,0,"spatial_trial","SS2",8,2,"rand","grocery store.png",3,2,NA,NA,NA,NA,NA,"acornsquash.png",2,NA
"09/02/2021 22:53:36","09/02/2021 17:53:35",40999,4,3008936,"5efa246d81a512824bc2d703","Chrome 88.0.4324.150","retrieval_b8",3,"SS2",25,4027.27500000037,4,1,0,0,"spatial_trial","SS2",8,2,"rand","grocery store.png",1,3,NA,NA,NA,NA,NA,"donut.png",3,NA
"09/02/2021 22:53:40","09/02/2021 17:53:38",40999,4,3008936,"5efa246d81a512824bc2d703","Chrome 88.0.4324.150","retrieval_b8",3,"SS2",21,2798.84500001208,3,1,1,0,"spatial_trial","SS2",8,4,"pred","pet store.png",3,3,NA,NA,NA,NA,NA,"vulture.png",3,NA
"09/02/2021 22:53:43","09/02/2021 17:53:41",40999,4,3008936,"5efa246d81a512824bc2d703","Chrome 88.0.4324.150","retrieval_b8",3,"SS2",28,1318.82000000041,1,1,1,0,"spatial_trial","SS2",8,2,"rand","grocery store.png",4,1,NA,NA,NA,NA,NA,"pomegranate.png",1,NA
"09/02/2021 22:53:45","09/02/2021 17:53:43",40999,4,3008936,"5efa246d81a512824bc2d703","Chrome 88.0.4324.150","retrieval_b8",3,"SS2",24,1254.37499998952,3,1,1,0,"spatial_trial","SS2",8,4,"pred","pet store.png",6,3,NA,NA,NA,NA,NA,"redpanda.png",3,NA
"09/02/2021 22:53:47","09/02/2021 17:53:45",40999,4,3008936,"5efa246d81a512824bc2d703","Chrome 88.0.4324.150","retrieval_b8",3,"SS2",29,1198.13999999315,4,1,1,0,"spatial_trial","SS2",8,2,"rand","grocery store.png",5,4,NA,NA,NA,NA,NA,"egg.png",4,NA
"09/02/2021 22:53:49","09/02/2021 17:53:47",40999,4,3008936,"5efa246d81a512824bc2d703","Chrome 88.0.4324.150","retrieval_b8",3,"SS2",19,996.920000005048,1,1,1,0,"spatial_trial","SS2",8,4,"pred","pet store.png",1,1,NA,NA,NA,NA,NA,"toad.png",1,NA
"09/02/2021 22:53:51","09/02/2021 17:53:49",40999,4,3008936,"5efa246d81a512824bc2d703","Chrome 88.0.4324.150","retrieval_b8",3,"SS2",20,1139.53000000038,4,1,1,0,"spatial_trial","SS2",8,4,"pred","pet store.png",2,4,NA,NA,NA,NA,NA,"donkey.png",4,NA
"09/02/2021 23:42:13","09/02/2021 15:42:13",40999,4,3009659,"5c53c145409f6e0001130a32","Firefox 85.0","retrieval_b1",4,"SS4",26,938,1,1,1,0,"spatial_trial","SS4",1,3,"rand","grocery store.png",2,1,NA,NA,NA,NA,NA,"smores.png",1,NA
"09/02/2021 23:42:15","09/02/2021 15:42:15",40999,4,3009659,"5c53c145409f6e0001130a32","Firefox 85.0","retrieval_b1",4,"SS4",25,621,2,1,1,0,"spatial_trial","SS4",1,3,"rand","grocery store.png",1,2,NA,NA,NA,NA,NA,"peanutbutter.png",2,NA
"09/02/2021 23:42:17","09/02/2021 15:42:17",40999,4,3009659,"5c53c145409f6e0001130a32","Firefox 85.0","retrieval_b1",4,"SS4",23,891,1,1,1,0,"spatial_trial","SS4",1,4,"pred","pet store.png",5,1,NA,NA,NA,NA,NA,"owl.png",1,NA
"09/02/2021 23:42:20","09/02/2021 15:42:20",40999,4,3009659,"5c53c145409f6e0001130a32","Firefox 85.0","retrieval_b1",4,"SS4",27,1407,3,1,1,0,"spatial_trial","SS4",1,3,"rand","grocery store.png",3,3,NA,NA,NA,NA,NA,"cookies.png",3,NA
"09/02/2021 23:42:22","09/02/2021 15:42:22",40999,4,3009659,"5c53c145409f6e0001130a32","Firefox 85.0","retrieval_b1",4,"SS4",20,964,2,1,1,0,"spatial_trial","SS4",1,4,"pred","pet store.png",2,2,NA,NA,NA,NA,NA,"kangaroo.png",2,NA
"09/02/2021 23:42:24","09/02/2021 15:42:23",40999,4,3009659,"5c53c145409f6e0001130a32","Firefox 85.0","retrieval_b1",4,"SS4",22,777,2,1,1,0,"spatial_trial","SS4",1,4,"pred","pet store.png",4,2,NA,NA,NA,NA,NA,"panther.png",2,NA
"09/02/2021 23:42:26","09/02/2021 15:42:26",40999,4,3009659,"5c53c145409f6e0001130a32","Firefox 85.0","retrieval_b1",4,"SS4",19,1108,3,1,1,0,"spatial_trial","SS4",1,4,"pred","pet store.png",1,3,NA,NA,NA,NA,NA,"iguana.png",3,NA
"09/02/2021 23:42:28","09/02/2021 15:42:28",40999,4,3009659,"5c53c145409f6e0001130a32","Firefox 85.0","retrieval_b1",4,"SS4",24,1111,3,1,0,0,"spatial_trial","SS4",1,4,"pred","pet store.png",6,4,NA,NA,NA,NA,NA,"pig.png",4,NA
"09/02/2021 23:42:30","09/02/2021 15:42:30",40999,4,3009659,"5c53c145409f6e0001130a32","Firefox 85.0","retrieval_b1",4,"SS4",28,801,4,1,1,0,"spatial_trial","SS4",1,3,"rand","grocery store.png",4,4,NA,NA,NA,NA,NA,"poutine.png",4,NA
"09/02/2021 23:42:31","09/02/2021 15:42:31",40999,4,3009659,"5c53c145409f6e0001130a32","Firefox 85.0","retrieval_b1",4,"SS4",30,811,1,1,1,0,"spatial_trial","SS4",1,3,"rand","grocery store.png",6,1,NA,NA,NA,NA,NA,"onion.png",1,NA
"09/02/2021 23:42:35","09/02/2021 15:42:35",40999,4,3009659,"5c53c145409f6e0001130a32","Firefox 85.0","retrieval_b1",4,"SS4",29,2467,3,1,1,0,"spatial_trial","SS4",1,3,"rand","grocery store.png",5,3,NA,NA,NA,NA,NA,"cabbage.png",3,NA
"09/02/2021 23:42:37","09/02/2021 15:42:37",40999,4,3009659,"5c53c145409f6e0001130a32","Firefox 85.0","retrieval_b1",4,"SS4",21,1000,4,1,1,0,"spatial_trial","SS4",1,4,"pred","pet store.png",3,4,NA,NA,NA,NA,NA,"pufferfish.png",4,NA
"09/02/2021 23:45:50","09/02/2021 15:45:50",40999,4,3009659,"5c53c145409f6e0001130a32","Firefox 85.0","retrieval_b2",3,"SS4",25,1313,2,1,1,0,"spatial_trial","SS4",2,1,"rand","grocery store.png",1,2,NA,NA,NA,NA,NA,"acaibowl.png",2,NA
"09/02/2021 23:45:52","09/02/2021 15:45:52",40999,4,3009659,"5c53c145409f6e0001130a32","Firefox 85.0","retrieval_b2",3,"SS4",23,949,1,1,1,0,"spatial_trial","SS4",2,2,"pred","pet store.png",5,1,NA,NA,NA,NA,NA,"squid.png",1,NA
"09/02/2021 23:45:54","09/02/2021 15:45:54",40999,4,3009659,"5c53c145409f6e0001130a32","Firefox 85.0","retrieval_b2",3,"SS4",26,1546,3,1,0,0,"spatial_trial","SS4",2,1,"rand","grocery store.png",2,1,NA,NA,NA,NA,NA,"strawberries.png",1,NA
"09/02/2021 23:45:58","09/02/2021 15:45:58",40999,4,3009659,"5c53c145409f6e0001130a32","Firefox 85.0","retrieval_b2",3,"SS4",24,2534,4,1,1,0,"spatial_trial","SS4",2,2,"pred","pet store.png",6,4,NA,NA,NA,NA,NA,"canadiangoose.png",4,NA
"09/02/2021 23:46:00","09/02/2021 15:46:00",40999,4,3009659,"5c53c145409f6e0001130a32","Firefox 85.0","retrieval_b2",3,"SS4",30,1394,3,1,1,0,"spatial_trial","SS4",2,1,"rand","grocery store.png",6,3,NA,NA,NA,NA,NA,"artichoke.png",3,NA
"09/02/2021 23:46:02","09/02/2021 15:46:02",40999,4,3009659,"5c53c145409f6e0001130a32","Firefox 85.0","retrieval_b2",3,"SS4",22,913,1,1,0,0,"spatial_trial","SS4",2,2,"pred","pet store.png",4,2,NA,NA,NA,NA,NA,"hammerheadshark.png",2,NA
"09/02/2021 23:46:04","09/02/2021 15:46:04",40999,4,3009659,"5c53c145409f6e0001130a32","Firefox 85.0","retrieval_b2",3,"SS4",29,920,4,1,1,0,"spatial_trial","SS4",2,1,"rand","grocery store.png",5,4,NA,NA,NA,NA,NA,"dumplings.png",4,NA
"09/02/2021 23:46:07","09/02/2021 15:46:07",40999,4,3009659,"5c53c145409f6e0001130a32","Firefox 85.0","retrieval_b2",3,"SS4",28,1357,1,1,1,0,"spatial_trial","SS4",2,1,"rand","grocery store.png",4,1,NA,NA,NA,NA,NA,"bellpeppers.png",1,NA
"09/02/2021 23:46:09","09/02/2021 15:46:09",40999,4,3009659,"5c53c145409f6e0001130a32","Firefox 85.0","retrieval_b2",3,"SS4",20,983,2,1,1,0,"spatial_trial","SS4",2,2,"pred","pet store.png",2,2,NA,NA,NA,NA,NA,"pug.png",2,NA
"09/02/2021 23:46:11","09/02/2021 15:46:11",40999,4,3009659,"5c53c145409f6e0001130a32","Firefox 85.0","retrieval_b2",3,"SS4",19,820,3,1,1,0,"spatial_trial","SS4",2,2,"pred","pet store.png",1,3,NA,NA,NA,NA,NA,"bison.png",3,NA
"09/02/2021 23:46:13","09/02/2021 15:46:13",40999,4,3009659,"5c53c145409f6e0001130a32","Firefox 85.0","retrieval_b2",3,"SS4",27,830,3,1,1,0,"spatial_trial","SS4",2,1,"rand","grocery store.png",3,3,NA,NA,NA,NA,NA,"hotdog.png",3,NA
"09/02/2021 23:46:15","09/02/2021 15:46:15",40999,4,3009659,"5c53c145409f6e0001130a32","Firefox 85.0","retrieval_b2",3,"SS4",21,1062,2,1,0,0,"spatial_trial","SS4",2,2,"pred","pet store.png",3,4,NA,NA,NA,NA,NA,"tortoise.png",4,NA
"09/02/2021 23:49:15","09/02/2021 15:49:15",40999,4,3009659,"5c53c145409f6e0001130a32","Firefox 85.0","retrieval_b3",3,"SS4",30,1451,1,1,1,0,"spatial_trial","SS4",3,3,"rand","grocery store.png",6,1,NA,NA,NA,NA,NA,"bakedpotato.png",1,NA
"09/02/2021 23:49:18","09/02/2021 15:49:18",40999,4,3009659,"5c53c145409f6e0001130a32","Firefox 85.0","retrieval_b3",3,"SS4",21,1225,3,1,0,0,"spatial_trial","SS4",3,1,"pred","pet store.png",3,4,NA,NA,NA,NA,NA,"goose.png",4,NA
"09/02/2021 23:49:20","09/02/2021 15:49:20",40999,4,3009659,"5c53c145409f6e0001130a32","Firefox 85.0","retrieval_b3",3,"SS4",25,1127,3,1,0,0,"spatial_trial","SS4",3,3,"rand","grocery store.png",1,4,NA,NA,NA,NA,NA,"corn.png",4,NA
"09/02/2021 23:49:22","09/02/2021 15:49:22",40999,4,3009659,"5c53c145409f6e0001130a32","Firefox 85.0","retrieval_b3",3,"SS4",24,1053,2,1,0,0,"spatial_trial","SS4",3,1,"pred","pet store.png",6,4,NA,NA,NA,NA,NA,"rat.png",4,NA
"09/02/2021 23:49:24","09/02/2021 15:49:24",40999,4,3009659,"5c53c145409f6e0001130a32","Firefox 85.0","retrieval_b3",3,"SS4",23,1208,1,1,1,0,"spatial_trial","SS4",3,1,"pred","pet store.png",5,1,NA,NA,NA,NA,NA,"seahorse.png",1,NA
"09/02/2021 23:49:27","09/02/2021 15:49:27",40999,4,3009659,"5c53c145409f6e0001130a32","Firefox 85.0","retrieval_b3",3,"SS4",26,1314,1,1,0,0,"spatial_trial","SS4",3,3,"rand","grocery store.png",2,2,NA,NA,NA,NA,NA,"cherries.png",2,NA
"09/02/2021 23:49:29","09/02/2021 15:49:29",40999,4,3009659,"5c53c145409f6e0001130a32","Firefox 85.0","retrieval_b3",3,"SS4",27,981,3,1,1,0,"spatial_trial","SS4",3,3,"rand","grocery store.png",3,3,NA,NA,NA,NA,NA,"cookedchicken.png",3,NA
"09/02/2021 23:49:31","09/02/2021 15:49:31",40999,4,3009659,"5c53c145409f6e0001130a32","Firefox 85.0","retrieval_b3",3,"SS4",20,947,2,1,1,0,"spatial_trial","SS4",3,1,"pred","pet store.png",2,2,NA,NA,NA,NA,NA,"toad.png",2,NA
"09/02/2021 23:49:33","09/02/2021 15:49:33",40999,4,3009659,"5c53c145409f6e0001130a32","Firefox 85.0","retrieval_b3",3,"SS4",29,929,2,1,1,0,"spatial_trial","SS4",3,3,"rand","grocery store.png",5,2,NA,NA,NA,NA,NA,"pineapple.png",2,NA
"09/02/2021 23:49:35","09/02/2021 15:49:34",40999,4,3009659,"5c53c145409f6e0001130a32","Firefox 85.0","retrieval_b3",3,"SS4",28,770,1,1,1,0,"spatial_trial","SS4",3,3,"rand","grocery store.png",4,1,NA,NA,NA,NA,NA,"garlic.png",1,NA
"09/02/2021 23:49:37","09/02/2021 15:49:36",40999,4,3009659,"5c53c145409f6e0001130a32","Firefox 85.0","retrieval_b3",3,"SS4",19,833,3,1,1,0,"spatial_trial","SS4",3,1,"pred","pet store.png",1,3,NA,NA,NA,NA,NA,"goldenretriever.png",3,NA
"09/02/2021 23:49:39","09/02/2021 15:49:39",40999,4,3009659,"5c53c145409f6e0001130a32","Firefox 85.0","retrieval_b3",3,"SS4",22,1541,3,1,0,0,"spatial_trial","SS4",3,1,"pred","pet store.png",4,2,NA,NA,NA,NA,NA,"manatee.png",2,NA
"09/02/2021 23:52:47","09/02/2021 15:52:47",40999,4,3009659,"5c53c145409f6e0001130a32","Firefox 85.0","retrieval_b4",3,"SS4",22,4056,1,1,0,0,"spatial_trial","SS4",4,2,"pred","pet store.png",4,2,NA,NA,NA,NA,NA,"butterfly.png",2,NA
"09/02/2021 23:52:49","09/02/2021 15:52:49",40999,4,3009659,"5c53c145409f6e0001130a32","Firefox 85.0","retrieval_b4",3,"SS4",28,980,3,1,1,0,"spatial_trial","SS4",4,4,"rand","grocery store.png",4,3,NA,NA,NA,NA,NA,"cereal.png",3,NA
"09/02/2021 23:52:52","09/02/2021 15:52:52",40999,4,3009659,"5c53c145409f6e0001130a32","Firefox 85.0","retrieval_b4",3,"SS4",23,1639,4,1,0,0,"spatial_trial","SS4",4,2,"pred","pet store.png",5,1,NA,NA,NA,NA,NA,"elephant.png",1,NA
"09/02/2021 23:52:55","09/02/2021 15:52:55",40999,4,3009659,"5c53c145409f6e0001130a32","Firefox 85.0","retrieval_b4",3,"SS4",29,1643,4,1,1,0,"spatial_trial","SS4",4,4,"rand","grocery store.png",5,4,NA,NA,NA,NA,NA,"orange.png",4,NA
"09/02/2021 23:53:00","09/02/2021 15:52:59",40999,4,3009659,"5c53c145409f6e0001130a32","Firefox 85.0","retrieval_b4",3,"SS4",26,3427,2,1,0,0,"spatial_trial","SS4",4,4,"rand","grocery store.png",2,3,NA,NA,NA,NA,NA,"sandwich.png",3,NA
"09/02/2021 23:53:01","09/02/2021 15:53:01",40999,4,3009659,"5c53c145409f6e0001130a32","Firefox 85.0","retrieval_b4",3,"SS4",30,814,1,1,1,0,"spatial_trial","SS4",4,4,"rand","grocery store.png",6,1,NA,NA,NA,NA,NA,"dragonfruit.png",1,NA
"09/02/2021 23:53:03","09/02/2021 15:53:03",40999,4,3009659,"5c53c145409f6e0001130a32","Firefox 85.0","retrieval_b4",3,"SS4",21,1062,3,1,0,0,"spatial_trial","SS4",4,2,"pred","pet store.png",3,4,NA,NA,NA,NA,NA,"cardinal.png",4,NA
"09/02/2021 23:53:06","09/02/2021 15:53:06",40999,4,3009659,"5c53c145409f6e0001130a32","Firefox 85.0","retrieval_b4",3,"SS4",20,1302,3,1,0,0,"spatial_trial","SS4",4,2,"pred","pet store.png",2,2,NA,NA,NA,NA,NA,"sheep.png",2,NA
"09/02/2021 23:53:08","09/02/2021 15:53:08",40999,4,3009659,"5c53c145409f6e0001130a32","Firefox 85.0","retrieval_b4",3,"SS4",19,1611,2,1,0,0,"spatial_trial","SS4",4,2,"pred","pet store.png",1,3,NA,NA,NA,NA,NA,"hummingbird.png",3,NA
"09/02/2021 23:53:10","09/02/2021 15:53:10",40999,4,3009659,"5c53c145409f6e0001130a32","Firefox 85.0","retrieval_b4",3,"SS4",27,807,1,1,1,0,"spatial_trial","SS4",4,4,"rand","grocery store.png",3,1,NA,NA,NA,NA,NA,"bacon.png",1,NA
"09/02/2021 23:53:13","09/02/2021 15:53:13",40999,4,3009659,"5c53c145409f6e0001130a32","Firefox 85.0","retrieval_b4",3,"SS4",24,1563,3,1,0,0,"spatial_trial","SS4",4,2,"pred","pet store.png",6,4,NA,NA,NA,NA,NA,"turtle.png",4,NA
"09/02/2021 23:53:17","09/02/2021 15:53:17",40999,4,3009659,"5c53c145409f6e0001130a32","Firefox 85.0","retrieval_b4",3,"SS4",25,3406,2,1,1,0,"spatial_trial","SS4",4,4,"rand","grocery store.png",1,2,NA,NA,NA,NA,NA,"starfruit.png",2,NA
"09/02/2021 23:56:19","09/02/2021 15:56:19",40999,4,3009659,"5c53c145409f6e0001130a32","Firefox 85.0","retrieval_b5",3,"SS4",28,956,4,1,1,0,"spatial_trial","SS4",5,2,"rand","grocery store.png",4,4,NA,NA,NA,NA,NA,"walnuts.png",4,NA
"09/02/2021 23:56:22","09/02/2021 15:56:22",40999,4,3009659,"5c53c145409f6e0001130a32","Firefox 85.0","retrieval_b5",3,"SS4",23,1327,1,1,1,0,"spatial_trial","SS4",5,1,"pred","pet store.png",5,1,NA,NA,NA,NA,NA,"flamingo.png",1,NA
"09/02/2021 23:56:25","09/02/2021 15:56:25",40999,4,3009659,"5c53c145409f6e0001130a32","Firefox 85.0","retrieval_b5",3,"SS4",19,2442,4,1,0,0,"spatial_trial","SS4",5,1,"pred","pet store.png",1,3,NA,NA,NA,NA,NA,"bloodhound.png",3,NA
"09/02/2021 23:56:27","09/02/2021 15:56:27",40999,4,3009659,"5c53c145409f6e0001130a32","Firefox 85.0","retrieval_b5",3,"SS4",24,823,4,1,1,0,"spatial_trial","SS4",5,1,"pred","pet store.png",6,4,NA,NA,NA,NA,NA,"hermitcrab.png",4,NA
"09/02/2021 23:56:30","09/02/2021 15:56:30",40999,4,3009659,"5c53c145409f6e0001130a32","Firefox 85.0","retrieval_b5",3,"SS4",25,1533,1,1,0,0,"spatial_trial","SS4",5,2,"rand","grocery store.png",1,2,NA,NA,NA,NA,NA,"milk.png",2,NA
"09/02/2021 23:56:33","09/02/2021 15:56:33",40999,4,3009659,"5c53c145409f6e0001130a32","Firefox 85.0","retrieval_b5",3,"SS4",26,2156,3,1,0,0,"spatial_trial","SS4",5,2,"rand","grocery store.png",2,4,NA,NA,NA,NA,NA,"cupnoodle.png",4,NA
"09/02/2021 23:56:36","09/02/2021 15:56:36",40999,4,3009659,"5c53c145409f6e0001130a32","Firefox 85.0","retrieval_b5",3,"SS4",27,2347,2,1,0,0,"spatial_trial","SS4",5,2,"rand","grocery store.png",3,3,NA,NA,NA,NA,NA,"donut.png",3,NA
"09/02/2021 23:56:39","09/02/2021 15:56:39",40999,4,3009659,"5c53c145409f6e0001130a32","Firefox 85.0","retrieval_b5",3,"SS4",21,1074,4,1,1,0,"spatial_trial","SS4",5,1,"pred","pet store.png",3,4,NA,NA,NA,NA,NA,"gorilla.png",4,NA
"09/02/2021 23:56:41","09/02/2021 15:56:41",40999,4,3009659,"5c53c145409f6e0001130a32","Firefox 85.0","retrieval_b5",3,"SS4",20,1118,1,1,0,0,"spatial_trial","SS4",5,1,"pred","pet store.png",2,2,NA,NA,NA,NA,NA,"penguin.png",2,NA
"09/02/2021 23:56:43","09/02/2021 15:56:43",40999,4,3009659,"5c53c145409f6e0001130a32","Firefox 85.0","retrieval_b5",3,"SS4",22,1525,2,1,1,0,"spatial_trial","SS4",5,1,"pred","pet store.png",4,2,NA,NA,NA,NA,NA,"crow.png",2,NA
"09/02/2021 23:56:45","09/02/2021 15:56:45",40999,4,3009659,"5c53c145409f6e0001130a32","Firefox 85.0","retrieval_b5",3,"SS4",29,1121,1,1,1,0,"spatial_trial","SS4",5,2,"rand","grocery store.png",5,1,NA,NA,NA,NA,NA,"soup.png",1,NA
"09/02/2021 23:56:49","09/02/2021 15:56:49",40999,4,3009659,"5c53c145409f6e0001130a32","Firefox 85.0","retrieval_b5",3,"SS4",30,2221,3,1,1,0,"spatial_trial","SS4",5,2,"rand","grocery store.png",6,3,NA,NA,NA,NA,NA,"fortunecookie.png",3,NA
"09/02/2021 23:59:42","09/02/2021 15:59:42",40999,4,3009659,"5c53c145409f6e0001130a32","Firefox 85.0","retrieval_b6",3,"SS4",27,1356,1,1,1,0,"spatial_trial","SS4",6,2,"rand","grocery store.png",3,1,NA,NA,NA,NA,NA,"blackpepper.png",1,NA
"09/02/2021 23:59:44","09/02/2021 15:59:44",40999,4,3009659,"5c53c145409f6e0001130a32","Firefox 85.0","retrieval_b6",3,"SS4",21,1235,4,1,1,0,"spatial_trial","SS4",6,4,"pred","pet store.png",3,4,NA,NA,NA,NA,NA,"bear.png",4,NA
"09/02/2021 23:59:48","09/02/2021 15:59:48",40999,4,3009659,"5c53c145409f6e0001130a32","Firefox 85.0","retrieval_b6",3,"SS4",24,2257,4,1,1,0,"spatial_trial","SS4",6,4,"pred","pet store.png",6,4,NA,NA,NA,NA,NA,"armadillo.png",4,NA
"09/02/2021 23:59:50","09/02/2021 15:59:50",40999,4,3009659,"5c53c145409f6e0001130a32","Firefox 85.0","retrieval_b6",3,"SS4",28,1699,3,1,1,0,"spatial_trial","SS4",6,2,"rand","grocery store.png",4,3,NA,NA,NA,NA,NA,"egg.png",3,NA
"09/02/2021 23:59:53","09/02/2021 15:59:53",40999,4,3009659,"5c53c145409f6e0001130a32","Firefox 85.0","retrieval_b6",3,"SS4",29,1920,2,1,0,0,"spatial_trial","SS4",6,2,"rand","grocery store.png",5,4,NA,NA,NA,NA,NA,"cantaloupe.png",4,NA
"09/02/2021 23:59:58","09/02/2021 15:59:58",40999,4,3009659,"5c53c145409f6e0001130a32","Firefox 85.0","retrieval_b6",3,"SS4",30,3079,2,1,0,0,"spatial_trial","SS4",6,2,"rand","grocery store.png",6,3,NA,NA,NA,NA,NA,"clams.png",3,NA
"10/02/2021 00:00:01","09/02/2021 16:00:01",40999,4,3009659,"5c53c145409f6e0001130a32","Firefox 85.0","retrieval_b6",3,"SS4",19,1971,2,1,0,0,"spatial_trial","SS4",6,4,"pred","pet store.png",1,3,NA,NA,NA,NA,NA,"fox.png",3,NA
"10/02/2021 00:00:05","09/02/2021 16:00:05",40999,4,3009659,"5c53c145409f6e0001130a32","Firefox 85.0","retrieval_b6",3,"SS4",20,3373,2,1,1,0,"spatial_trial","SS4",6,4,"pred","pet store.png",2,2,NA,NA,NA,NA,NA,"emu.png",2,NA
"10/02/2021 00:00:09","09/02/2021 16:00:09",40999,4,3009659,"5c53c145409f6e0001130a32","Firefox 85.0","retrieval_b6",3,"SS4",23,3116,4,1,0,0,"spatial_trial","SS4",6,4,"pred","pet store.png",5,1,NA,NA,NA,NA,NA,"redpanda.png",1,NA
"10/02/2021 00:00:11","09/02/2021 16:00:11",40999,4,3009659,"5c53c145409f6e0001130a32","Firefox 85.0","retrieval_b6",3,"SS4",25,1102,2,1,1,0,"spatial_trial","SS4",6,2,"rand","grocery store.png",1,2,NA,NA,NA,NA,NA,"pomegranate.png",2,NA
"10/02/2021 00:00:16","09/02/2021 16:00:16",40999,4,3009659,"5c53c145409f6e0001130a32","Firefox 85.0","retrieval_b6",3,"SS4",22,3939,2,1,1,0,"spatial_trial","SS4",6,4,"pred","pet store.png",4,2,NA,NA,NA,NA,NA,"cuttlefish.png",2,NA
"10/02/2021 00:00:19","09/02/2021 16:00:19",40999,4,3009659,"5c53c145409f6e0001130a32","Firefox 85.0","retrieval_b6",3,"SS4",26,1126,4,1,1,0,"spatial_trial","SS4",6,2,"rand","grocery store.png",2,4,NA,NA,NA,NA,NA,"hummus.png",4,NA
"10/02/2021 00:03:21","09/02/2021 16:03:21",40999,4,3009659,"5c53c145409f6e0001130a32","Firefox 85.0","retrieval_b7",3,"SS4",24,2111,4,1,1,0,"spatial_trial","SS4",7,3,"pred","pet store.png",6,4,NA,NA,NA,NA,NA,"platypus.png",4,NA
"10/02/2021 00:03:23","09/02/2021 16:03:23",40999,4,3009659,"5c53c145409f6e0001130a32","Firefox 85.0","retrieval_b7",3,"SS4",30,789,4,1,1,0,"spatial_trial","SS4",7,4,"rand","grocery store.png",6,4,NA,NA,NA,NA,NA,"muffin.png",4,NA
"10/02/2021 00:03:25","09/02/2021 16:03:25",40999,4,3009659,"5c53c145409f6e0001130a32","Firefox 85.0","retrieval_b7",3,"SS4",28,785,4,1,1,0,"spatial_trial","SS4",7,4,"rand","grocery store.png",4,4,NA,NA,NA,NA,NA,"icecreamsandwich.png",4,NA
"10/02/2021 00:03:27","09/02/2021 16:03:27",40999,4,3009659,"5c53c145409f6e0001130a32","Firefox 85.0","retrieval_b7",3,"SS4",27,1355,1,1,1,0,"spatial_trial","SS4",7,4,"rand","grocery store.png",3,1,NA,NA,NA,NA,NA,"cake.png",1,NA
"10/02/2021 00:03:31","09/02/2021 16:03:31",40999,4,3009659,"5c53c145409f6e0001130a32","Firefox 85.0","retrieval_b7",3,"SS4",23,2095,1,1,1,0,"spatial_trial","SS4",7,3,"pred","pet store.png",5,1,NA,NA,NA,NA,NA,"cat.png",1,NA
"10/02/2021 00:03:32","09/02/2021 16:03:32",40999,4,3009659,"5c53c145409f6e0001130a32","Firefox 85.0","retrieval_b7",3,"SS4",26,928,3,1,1,0,"spatial_trial","SS4",7,4,"rand","grocery store.png",2,3,NA,NA,NA,NA,NA,"granola.png",3,NA
"10/02/2021 00:03:35","09/02/2021 16:03:35",40999,4,3009659,"5c53c145409f6e0001130a32","Firefox 85.0","retrieval_b7",3,"SS4",25,1064,2,1,1,0,"spatial_trial","SS4",7,4,"rand","grocery store.png",1,2,NA,NA,NA,NA,NA,"nachos.png",2,NA
"10/02/2021 00:03:37","09/02/2021 16:03:36",40999,4,3009659,"5c53c145409f6e0001130a32","Firefox 85.0","retrieval_b7",3,"SS4",29,839,3,1,1,0,"spatial_trial","SS4",7,4,"rand","grocery store.png",5,3,NA,NA,NA,NA,NA,"oliveoil.png",3,NA
"10/02/2021 00:03:38","09/02/2021 16:03:39",40999,4,3009659,"5c53c145409f6e0001130a32","Firefox 85.0","retrieval_b7",3,"SS4",19,976,2,1,0,0,"spatial_trial","SS4",7,3,"pred","pet store.png",1,3,NA,NA,NA,NA,NA,"tiger.png",3,NA
"10/02/2021 00:03:41","09/02/2021 16:03:41",40999,4,3009659,"5c53c145409f6e0001130a32","Firefox 85.0","retrieval_b7",3,"SS4",21,1113,4,1,1,0,"spatial_trial","SS4",7,3,"pred","pet store.png",3,4,NA,NA,NA,NA,NA,"rhino.png",4,NA
"10/02/2021 00:03:44","09/02/2021 16:03:44",40999,4,3009659,"5c53c145409f6e0001130a32","Firefox 85.0","retrieval_b7",3,"SS4",22,2403,2,1,1,0,"spatial_trial","SS4",7,3,"pred","pet store.png",4,2,NA,NA,NA,NA,NA,"koala.png",2,NA
"10/02/2021 00:03:46","09/02/2021 16:03:46",40999,4,3009659,"5c53c145409f6e0001130a32","Firefox 85.0","retrieval_b7",3,"SS4",20,1213,2,1,1,0,"spatial_trial","SS4",7,3,"pred","pet store.png",2,2,NA,NA,NA,NA,NA,"shark.png",2,NA
"10/02/2021 00:07:05","09/02/2021 16:07:05",40999,4,3009659,"5c53c145409f6e0001130a32","Firefox 85.0","retrieval_b8",3,"SS4",19,1775,3,1,1,0,"spatial_trial","SS4",8,3,"pred","pet store.png",1,3,NA,NA,NA,NA,NA,"vulture.png",3,NA
"10/02/2021 00:07:07","09/02/2021 16:07:07",40999,4,3009659,"5c53c145409f6e0001130a32","Firefox 85.0","retrieval_b8",3,"SS4",27,1406,1,1,1,0,"spatial_trial","SS4",8,1,"rand","grocery store.png",3,1,NA,NA,NA,NA,NA,"cinnamon.png",1,NA
"10/02/2021 00:07:10","09/02/2021 16:07:10",40999,4,3009659,"5c53c145409f6e0001130a32","Firefox 85.0","retrieval_b8",3,"SS4",22,1348,2,1,1,0,"spatial_trial","SS4",8,3,"pred","pet store.png",4,2,NA,NA,NA,NA,NA,"eagle.png",2,NA
"10/02/2021 00:07:12","09/02/2021 16:07:12",40999,4,3009659,"5c53c145409f6e0001130a32","Firefox 85.0","retrieval_b8",3,"SS4",24,850,4,1,1,0,"spatial_trial","SS4",8,3,"pred","pet store.png",6,4,NA,NA,NA,NA,NA,"polarbear.png",4,NA
"10/02/2021 00:07:14","09/02/2021 16:07:14",40999,4,3009659,"5c53c145409f6e0001130a32","Firefox 85.0","retrieval_b8",3,"SS4",30,1730,4,1,1,0,"spatial_trial","SS4",8,1,"rand","grocery store.png",6,4,NA,NA,NA,NA,NA,"butter.png",4,NA
"10/02/2021 00:07:17","09/02/2021 16:07:17",40999,4,3009659,"5c53c145409f6e0001130a32","Firefox 85.0","retrieval_b8",3,"SS4",20,1690,2,1,1,0,"spatial_trial","SS4",8,3,"pred","pet store.png",2,2,NA,NA,NA,NA,NA,"turkey.png",2,NA
"10/02/2021 00:07:20","09/02/2021 16:07:20",40999,4,3009659,"5c53c145409f6e0001130a32","Firefox 85.0","retrieval_b8",3,"SS4",26,1233,4,1,1,0,"spatial_trial","SS4",8,1,"rand","grocery store.png",2,4,NA,NA,NA,NA,NA,"lychee.png",4,NA
"10/02/2021 00:07:22","09/02/2021 16:07:22",40999,4,3009659,"5c53c145409f6e0001130a32","Firefox 85.0","retrieval_b8",3,"SS4",28,1561,3,1,1,0,"spatial_trial","SS4",8,1,"rand","grocery store.png",4,3,NA,NA,NA,NA,NA,"basil.png",3,NA
"10/02/2021 00:07:25","09/02/2021 16:07:24",40999,4,3009659,"5c53c145409f6e0001130a32","Firefox 85.0","retrieval_b8",3,"SS4",23,1279,1,1,1,0,"spatial_trial","SS4",8,3,"pred","pet store.png",5,1,NA,NA,NA,NA,NA,"parrot.png",1,NA
"10/02/2021 00:07:29","09/02/2021 16:07:29",40999,4,3009659,"5c53c145409f6e0001130a32","Firefox 85.0","retrieval_b8",3,"SS4",29,3581,4,1,0,0,"spatial_trial","SS4",8,1,"rand","grocery store.png",5,1,NA,NA,NA,NA,NA,"celery.png",1,NA
"10/02/2021 00:07:32","09/02/2021 16:07:32",40999,4,3009659,"5c53c145409f6e0001130a32","Firefox 85.0","retrieval_b8",3,"SS4",21,1823,3,1,0,0,"spatial_trial","SS4",8,3,"pred","pet store.png",3,4,NA,NA,NA,NA,NA,"zebra.png",4,NA
"10/02/2021 00:07:34","09/02/2021 16:07:34",40999,4,3009659,"5c53c145409f6e0001130a32","Firefox 85.0","retrieval_b8",3,"SS4",25,1154,2,1,1,0,"spatial_trial","SS4",8,1,"rand","grocery store.png",1,2,NA,NA,NA,NA,NA,"pretzel.png",2,NA
"09/02/2021 23:45:31","09/02/2021 15:45:33",40999,4,3009655,"5f49806859401418f7ec6764","Edge 88.0.705.63","retrieval_b1",4,"SS1",29,3306.59500000002,1,1,1,0,"spatial_trial","SS1",1,3,"rand","pet store.png",5,1,NA,NA,NA,NA,NA,"tiger.png",1,NA
"09/02/2021 23:45:34","09/02/2021 15:45:37",40999,4,3009655,"5f49806859401418f7ec6764","Edge 88.0.705.63","retrieval_b1",4,"SS1",23,2865.45999999998,3,1,0,0,"spatial_trial","SS1",1,4,"pred","grocery store.png",5,2,NA,NA,NA,NA,NA,"cherries.png",2,NA
"09/02/2021 23:45:38","09/02/2021 15:45:40",40999,4,3009655,"5f49806859401418f7ec6764","Edge 88.0.705.63","retrieval_b1",4,"SS1",30,2106.79999999957,4,1,1,0,"spatial_trial","SS1",1,3,"rand","pet store.png",6,4,NA,NA,NA,NA,NA,"redpanda.png",4,NA
"09/02/2021 23:45:40","09/02/2021 15:45:42",40999,4,3009655,"5f49806859401418f7ec6764","Edge 88.0.705.63","retrieval_b1",4,"SS1",25,1124.74000000019,3,1,1,0,"spatial_trial","SS1",1,3,"rand","pet store.png",1,3,NA,NA,NA,NA,NA,"ferret.png",3,NA
"09/02/2021 23:45:43","09/02/2021 15:45:46",40999,4,3009655,"5f49806859401418f7ec6764","Edge 88.0.705.63","retrieval_b1",4,"SS1",24,2174.48999999942,4,1,0,0,"spatial_trial","SS1",1,4,"pred","grocery store.png",6,3,NA,NA,NA,NA,NA,"cookedchicken.png",3,NA
"09/02/2021 23:45:45","09/02/2021 15:45:47",40999,4,3009655,"5f49806859401418f7ec6764","Edge 88.0.705.63","retrieval_b1",4,"SS1",27,816.984999999477,1,1,1,0,"spatial_trial","SS1",1,3,"rand","pet store.png",3,1,NA,NA,NA,NA,NA,"owl.png",1,NA
"09/02/2021 23:45:47","09/02/2021 15:45:49",40999,4,3009655,"5f49806859401418f7ec6764","Edge 88.0.705.63","retrieval_b1",4,"SS1",28,1079.28999999967,2,1,1,0,"spatial_trial","SS1",1,3,"rand","pet store.png",4,2,NA,NA,NA,NA,NA,"platypus.png",2,NA
"09/02/2021 23:45:49","09/02/2021 15:45:51",40999,4,3009655,"5f49806859401418f7ec6764","Edge 88.0.705.63","retrieval_b1",4,"SS1",20,941.850000000151,4,1,1,0,"spatial_trial","SS1",1,4,"pred","grocery store.png",2,4,NA,NA,NA,NA,NA,"nachos.png",4,NA
"09/02/2021 23:45:51","09/02/2021 15:45:54",40999,4,3009655,"5f49806859401418f7ec6764","Edge 88.0.705.63","retrieval_b1",4,"SS1",21,1513.76000000074,3,1,1,0,"spatial_trial","SS1",1,4,"pred","grocery store.png",3,3,NA,NA,NA,NA,NA,"bagel.png",3,NA
"09/02/2021 23:45:53","09/02/2021 15:45:56",40999,4,3009655,"5f49806859401418f7ec6764","Edge 88.0.705.63","retrieval_b1",4,"SS1",26,930.575000000317,4,1,1,0,"spatial_trial","SS1",1,3,"rand","pet store.png",2,4,NA,NA,NA,NA,NA,"hedgehog.png",4,NA
"09/02/2021 23:45:55","09/02/2021 15:45:58",40999,4,3009655,"5f49806859401418f7ec6764","Edge 88.0.705.63","retrieval_b1",4,"SS1",19,788.045000000231,1,1,1,0,"spatial_trial","SS1",1,4,"pred","grocery store.png",1,1,NA,NA,NA,NA,NA,"blackpepper.png",1,NA
"09/02/2021 23:45:57","09/02/2021 15:46:00",40999,4,3009655,"5f49806859401418f7ec6764","Edge 88.0.705.63","retrieval_b1",4,"SS1",22,841.63999999965,4,1,1,0,"spatial_trial","SS1",1,4,"pred","grocery store.png",4,4,NA,NA,NA,NA,NA,"waffle.png",4,NA
"09/02/2021 23:49:16","09/02/2021 15:49:18",40999,4,3009655,"5f49806859401418f7ec6764","Edge 88.0.705.63","retrieval_b2",3,"SS1",19,1075.66499999939,1,1,1,0,"spatial_trial","SS1",2,4,"pred","grocery store.png",1,1,NA,NA,NA,NA,NA,"ravioli.png",1,NA
"09/02/2021 23:49:19","09/02/2021 15:49:21",40999,4,3009655,"5f49806859401418f7ec6764","Edge 88.0.705.63","retrieval_b2",3,"SS1",26,1803.34500000026,1,1,1,0,"spatial_trial","SS1",2,2,"rand","pet store.png",2,1,NA,NA,NA,NA,NA,"hummingbird.png",1,NA
"09/02/2021 23:49:21","09/02/2021 15:49:23",40999,4,3009655,"5f49806859401418f7ec6764","Edge 88.0.705.63","retrieval_b2",3,"SS1",28,872.209999999541,3,1,1,0,"spatial_trial","SS1",2,2,"rand","pet store.png",4,3,NA,NA,NA,NA,NA,"vulture.png",3,NA
"09/02/2021 23:49:22","09/02/2021 15:49:25",40999,4,3009655,"5f49806859401418f7ec6764","Edge 88.0.705.63","retrieval_b2",3,"SS1",20,720.585000000028,4,1,1,0,"spatial_trial","SS1",2,4,"pred","grocery store.png",2,4,NA,NA,NA,NA,NA,"clams.png",4,NA
"09/02/2021 23:49:24","09/02/2021 15:49:27",40999,4,3009655,"5f49806859401418f7ec6764","Edge 88.0.705.63","retrieval_b2",3,"SS1",22,844.984999999724,4,1,1,0,"spatial_trial","SS1",2,4,"pred","grocery store.png",4,4,NA,NA,NA,NA,NA,"apple.png",4,NA
"09/02/2021 23:49:26","09/02/2021 15:49:29",40999,4,3009655,"5f49806859401418f7ec6764","Edge 88.0.705.63","retrieval_b2",3,"SS1",30,921.145000000251,1,1,1,0,"spatial_trial","SS1",2,2,"rand","pet store.png",6,1,NA,NA,NA,NA,NA,"pufferfish.png",1,NA
"09/02/2021 23:49:28","09/02/2021 15:49:30",40999,4,3009655,"5f49806859401418f7ec6764","Edge 88.0.705.63","retrieval_b2",3,"SS1",21,744.34999999994,3,1,1,0,"spatial_trial","SS1",2,4,"pred","grocery store.png",3,3,NA,NA,NA,NA,NA,"pancakes.png",3,NA
"09/02/2021 23:49:30","09/02/2021 15:49:32",40999,4,3009655,"5f49806859401418f7ec6764","Edge 88.0.705.63","retrieval_b2",3,"SS1",25,883.284999999887,2,1,1,0,"spatial_trial","SS1",2,2,"rand","pet store.png",1,2,NA,NA,NA,NA,NA,"pig.png",2,NA
"09/02/2021 23:49:31","09/02/2021 15:49:34",40999,4,3009655,"5f49806859401418f7ec6764","Edge 88.0.705.63","retrieval_b2",3,"SS1",27,719.404999999824,4,1,1,0,"spatial_trial","SS1",2,2,"rand","pet store.png",3,4,NA,NA,NA,NA,NA,"toucan.png",4,NA
"09/02/2021 23:49:34","09/02/2021 15:49:36",40999,4,3009655,"5f49806859401418f7ec6764","Edge 88.0.705.63","retrieval_b2",3,"SS1",23,1299.07000000003,2,1,1,0,"spatial_trial","SS1",2,4,"pred","grocery store.png",5,2,NA,NA,NA,NA,NA,"guava.png",2,NA
"09/02/2021 23:49:36","09/02/2021 15:49:38",40999,4,3009655,"5f49806859401418f7ec6764","Edge 88.0.705.63","retrieval_b2",3,"SS1",29,748.549999999341,4,1,1,0,"spatial_trial","SS1",2,2,"rand","pet store.png",5,4,NA,NA,NA,NA,NA,"panther.png",4,NA
"09/02/2021 23:49:39","09/02/2021 15:49:42",40999,4,3009655,"5f49806859401418f7ec6764","Edge 88.0.705.63","retrieval_b2",3,"SS1",24,2567.20000000041,3,1,1,0,"spatial_trial","SS1",2,4,"pred","grocery store.png",6,3,NA,NA,NA,NA,NA,"edamame.png",3,NA
"09/02/2021 23:53:10","09/02/2021 15:53:12",40999,4,3009655,"5f49806859401418f7ec6764","Edge 88.0.705.63","retrieval_b3",3,"SS1",20,941.244999999981,4,1,1,0,"spatial_trial","SS1",3,1,"pred","grocery store.png",2,4,NA,NA,NA,NA,NA,"tomato.png",4,NA
"09/02/2021 23:53:12","09/02/2021 15:53:14",40999,4,3009655,"5f49806859401418f7ec6764","Edge 88.0.705.63","retrieval_b3",3,"SS1",24,918.324999999641,3,1,1,0,"spatial_trial","SS1",3,1,"pred","grocery store.png",6,3,NA,NA,NA,NA,NA,"artichoke.png",3,NA
"09/02/2021 23:53:14","09/02/2021 15:53:17",40999,4,3009655,"5f49806859401418f7ec6764","Edge 88.0.705.63","retrieval_b3",3,"SS1",25,1473.51500000059,4,1,1,0,"spatial_trial","SS1",3,2,"rand","pet store.png",1,4,NA,NA,NA,NA,NA,"boar.png",4,NA
"09/02/2021 23:53:16","09/02/2021 15:53:19",40999,4,3009655,"5f49806859401418f7ec6764","Edge 88.0.705.63","retrieval_b3",3,"SS1",26,1214.28000000014,3,1,1,0,"spatial_trial","SS1",3,2,"rand","pet store.png",2,3,NA,NA,NA,NA,NA,"zebra.png",3,NA
"09/02/2021 23:53:18","09/02/2021 15:53:21",40999,4,3009655,"5f49806859401418f7ec6764","Edge 88.0.705.63","retrieval_b3",3,"SS1",30,760.634999999638,4,1,0,0,"spatial_trial","SS1",3,2,"rand","pet store.png",6,3,NA,NA,NA,NA,NA,"snail.png",3,NA
"09/02/2021 23:53:20","09/02/2021 15:53:23",40999,4,3009655,"5f49806859401418f7ec6764","Edge 88.0.705.63","retrieval_b3",3,"SS1",19,950.160000000324,4,1,0,0,"spatial_trial","SS1",3,1,"pred","grocery store.png",1,1,NA,NA,NA,NA,NA,"acaibowl.png",1,NA
"09/02/2021 23:53:22","09/02/2021 15:53:25",40999,4,3009655,"5f49806859401418f7ec6764","Edge 88.0.705.63","retrieval_b3",3,"SS1",27,948.080000000118,1,1,1,0,"spatial_trial","SS1",3,2,"rand","pet store.png",3,1,NA,NA,NA,NA,NA,"panda.png",1,NA
"09/02/2021 23:53:24","09/02/2021 15:53:26",40999,4,3009655,"5f49806859401418f7ec6764","Edge 88.0.705.63","retrieval_b3",3,"SS1",29,642.125000000306,1,1,1,0,"spatial_trial","SS1",3,2,"rand","pet store.png",5,1,NA,NA,NA,NA,NA,"bat.png",1,NA
"09/02/2021 23:53:26","09/02/2021 15:53:28",40999,4,3009655,"5f49806859401418f7ec6764","Edge 88.0.705.63","retrieval_b3",3,"SS1",23,962.059999999838,2,1,1,0,"spatial_trial","SS1",3,1,"pred","grocery store.png",5,2,NA,NA,NA,NA,NA,"dumplings.png",2,NA
"09/02/2021 23:53:27","09/02/2021 15:53:30",40999,4,3009655,"5f49806859401418f7ec6764","Edge 88.0.705.63","retrieval_b3",3,"SS1",22,900.920000000042,4,1,1,0,"spatial_trial","SS1",3,1,"pred","grocery store.png",4,4,NA,NA,NA,NA,NA,"lemon.png",4,NA
"09/02/2021 23:53:29","09/02/2021 15:53:32",40999,4,3009655,"5f49806859401418f7ec6764","Edge 88.0.705.63","retrieval_b3",3,"SS1",28,748.429999999644,2,1,1,0,"spatial_trial","SS1",3,2,"rand","pet store.png",4,2,NA,NA,NA,NA,NA,"beetle.png",2,NA
"09/02/2021 23:53:31","09/02/2021 15:53:34",40999,4,3009655,"5f49806859401418f7ec6764","Edge 88.0.705.63","retrieval_b3",3,"SS1",21,964.089999999487,4,1,0,0,"spatial_trial","SS1",3,1,"pred","grocery store.png",3,3,NA,NA,NA,NA,NA,"orange.png",3,NA
"09/02/2021 23:58:54","09/02/2021 15:58:56",40999,4,3009655,"5f49806859401418f7ec6764","Edge 88.0.705.63","retrieval_b4",3,"SS1",23,1369.51500000032,2,1,1,0,"spatial_trial","SS1",4,2,"pred","grocery store.png",5,2,NA,NA,NA,NA,NA,"smores.png",2,NA
"09/02/2021 23:58:56","09/02/2021 15:58:59",40999,4,3009655,"5f49806859401418f7ec6764","Edge 88.0.705.63","retrieval_b4",3,"SS1",28,1924.1750000001,4,1,1,0,"spatial_trial","SS1",4,4,"rand","pet store.png",4,4,NA,NA,NA,NA,NA,"goat.png",4,NA
"09/02/2021 23:58:59","09/02/2021 15:59:01",40999,4,3009655,"5f49806859401418f7ec6764","Edge 88.0.705.63","retrieval_b4",3,"SS1",21,1253.94999999935,3,1,1,0,"spatial_trial","SS1",4,2,"pred","grocery store.png",3,3,NA,NA,NA,NA,NA,"bacon.png",3,NA
