"utc_date","local_date","exp_id","exp_ver","id","prolific_id","browser","task","task_ver","gorilla_counterbalance","trial_row","rt","response","attempt","accuracy","dishonest","display","counterbalance_order","list","event","condition","event_name","stim","seq_pos","spatial_pos"
"09/02/2021 22:09:58","09/02/2021 17:09:59",40999,4,3008743,"5f3c23cbcee6b3a3c4faff76","Firefox 85.0","encoding_b1",3,"SS5",4,791,1,1,1,0,"motor_trial","SS5",1,1,"pred","grocery store.png","caramelapple.png",1,1
"09/02/2021 22:10:02","09/02/2021 17:10:03",40999,4,3008743,"5f3c23cbcee6b3a3c4faff76","Firefox 85.0","encoding_b1",3,"SS5",6,390,4,1,1,0,"motor_trial","SS5",1,1,"pred","grocery store.png","poutine.png",2,4
"09/02/2021 22:10:06","09/02/2021 17:10:07",40999,4,3008743,"5f3c23cbcee6b3a3c4faff76","Firefox 85.0","encoding_b1",3,"SS5",8,514,3,1,1,0,"motor_trial","SS5",1,1,"pred","grocery store.png","mushrooms.png",3,3
"09/02/2021 22:10:10","09/02/2021 17:10:11",40999,4,3008743,"5f3c23cbcee6b3a3c4faff76","Firefox 85.0","encoding_b1",3,"SS5",10,581,4,1,1,0,"motor_trial","SS5",1,1,"pred","grocery store.png","onion.png",4,4
"09/02/2021 22:10:14","09/02/2021 17:10:15",40999,4,3008743,"5f3c23cbcee6b3a3c4faff76","Firefox 85.0","encoding_b1",3,"SS5",12,558,2,1,1,0,"motor_trial","SS5",1,1,"pred","grocery store.png","broccoli.png",5,2
"09/02/2021 22:10:18","09/02/2021 17:10:19",40999,4,3008743,"5f3c23cbcee6b3a3c4faff76","Firefox 85.0","encoding_b1",3,"SS5",14,745,3,1,1,0,"motor_trial","SS5",1,1,"pred","grocery store.png","basil.png",6,3
"09/02/2021 22:10:26","09/02/2021 17:10:27",40999,4,3008743,"5f3c23cbcee6b3a3c4faff76","Firefox 85.0","encoding_b1",3,"SS5",18,531,1,1,1,0,"motor_trial","SS5",1,2,"pred","grocery store.png","watermelon.png",1,1
"09/02/2021 22:10:30","09/02/2021 17:10:31",40999,4,3008743,"5f3c23cbcee6b3a3c4faff76","Firefox 85.0","encoding_b1",3,"SS5",20,391,4,1,1,0,"motor_trial","SS5",1,2,"pred","grocery store.png","popcornshrimp.png",2,4
"09/02/2021 22:10:33","09/02/2021 17:10:34",40999,4,3008743,"5f3c23cbcee6b3a3c4faff76","Firefox 85.0","encoding_b1",3,"SS5",22,295,3,1,1,0,"motor_trial","SS5",1,2,"pred","grocery store.png","coffee.png",3,3
"09/02/2021 22:10:37","09/02/2021 17:10:38",40999,4,3008743,"5f3c23cbcee6b3a3c4faff76","Firefox 85.0","encoding_b1",3,"SS5",24,549,4,1,1,0,"motor_trial","SS5",1,2,"pred","grocery store.png","cabbage.png",4,4
"09/02/2021 22:10:41","09/02/2021 17:10:42",40999,4,3008743,"5f3c23cbcee6b3a3c4faff76","Firefox 85.0","encoding_b1",3,"SS5",26,668,2,1,1,0,"motor_trial","SS5",1,2,"pred","grocery store.png","guava.png",5,2
"09/02/2021 22:10:45","09/02/2021 17:10:46",40999,4,3008743,"5f3c23cbcee6b3a3c4faff76","Firefox 85.0","encoding_b1",3,"SS5",28,399,3,1,1,0,"motor_trial","SS5",1,2,"pred","grocery store.png","nachos.png",6,3
"09/02/2021 22:10:54","09/02/2021 17:10:54",40999,4,3008743,"5f3c23cbcee6b3a3c4faff76","Firefox 85.0","encoding_b1",3,"SS5",32,1158,4,1,1,0,"motor_trial","SS5",1,3,"rand","pet store.png","pufferfish.png",1,4
"09/02/2021 22:10:57","09/02/2021 17:10:58",40999,4,3008743,"5f3c23cbcee6b3a3c4faff76","Firefox 85.0","encoding_b1",3,"SS5",34,402,3,1,1,0,"motor_trial","SS5",1,3,"rand","pet store.png","dolphin.png",2,3
"09/02/2021 22:11:01","09/02/2021 17:11:02",40999,4,3008743,"5f3c23cbcee6b3a3c4faff76","Firefox 85.0","encoding_b1",3,"SS5",36,623,1,1,1,0,"motor_trial","SS5",1,3,"rand","pet store.png","stingray.png",3,1
"09/02/2021 22:11:05","09/02/2021 17:11:06",40999,4,3008743,"5f3c23cbcee6b3a3c4faff76","Firefox 85.0","encoding_b1",3,"SS5",38,444,2,1,1,0,"motor_trial","SS5",1,3,"rand","pet store.png","crocodile.png",4,2
"09/02/2021 22:11:09","09/02/2021 17:11:10",40999,4,3008743,"5f3c23cbcee6b3a3c4faff76","Firefox 85.0","encoding_b1",3,"SS5",40,554,1,1,1,0,"motor_trial","SS5",1,3,"rand","pet store.png","boar.png",5,1
"09/02/2021 22:11:13","09/02/2021 17:11:14",40999,4,3008743,"5f3c23cbcee6b3a3c4faff76","Firefox 85.0","encoding_b1",3,"SS5",42,498,3,1,1,0,"motor_trial","SS5",1,3,"rand","pet store.png","llama.png",6,3
"09/02/2021 22:11:22","09/02/2021 17:11:23",40999,4,3008743,"5f3c23cbcee6b3a3c4faff76","Firefox 85.0","encoding_b1",3,"SS5",46,1491,3,1,1,0,"motor_trial","SS5",1,4,"rand","pet store.png","parrot.png",1,3
"09/02/2021 22:11:26","09/02/2021 17:11:26",40999,4,3008743,"5f3c23cbcee6b3a3c4faff76","Firefox 85.0","encoding_b1",3,"SS5",48,436,4,1,1,0,"motor_trial","SS5",1,4,"rand","pet store.png","ferret.png",2,4
"09/02/2021 22:11:30","09/02/2021 17:11:30",40999,4,3008743,"5f3c23cbcee6b3a3c4faff76","Firefox 85.0","encoding_b1",3,"SS5",50,576,1,1,1,0,"motor_trial","SS5",1,4,"rand","pet store.png","owl.png",3,1
"09/02/2021 22:11:33","09/02/2021 17:11:34",40999,4,3008743,"5f3c23cbcee6b3a3c4faff76","Firefox 85.0","encoding_b1",3,"SS5",52,581,2,1,1,0,"motor_trial","SS5",1,4,"rand","pet store.png","pig.png",4,2
"09/02/2021 22:11:37","09/02/2021 17:11:38",40999,4,3008743,"5f3c23cbcee6b3a3c4faff76","Firefox 85.0","encoding_b1",3,"SS5",54,649,1,1,1,0,"motor_trial","SS5",1,4,"rand","pet store.png","pug.png",5,1
"09/02/2021 22:11:41","09/02/2021 17:11:42",40999,4,3008743,"5f3c23cbcee6b3a3c4faff76","Firefox 85.0","encoding_b1",3,"SS5",56,589,4,1,1,0,"motor_trial","SS5",1,4,"rand","pet store.png","hippo.png",6,4
"09/02/2021 22:14:05","09/02/2021 17:14:05",40999,4,3008743,"5f3c23cbcee6b3a3c4faff76","Firefox 85.0","encoding_b2",4,"SS5",4,667,1,1,1,0,"motor_trial","SS5",2,1,"pred","grocery store.png","peanutbutter.png",1,1
"09/02/2021 22:14:08","09/02/2021 17:14:09",40999,4,3008743,"5f3c23cbcee6b3a3c4faff76","Firefox 85.0","encoding_b2",4,"SS5",6,328,4,1,1,0,"motor_trial","SS5",2,1,"pred","grocery store.png","acaibowl.png",2,4
"09/02/2021 22:14:12","09/02/2021 17:14:13",40999,4,3008743,"5f3c23cbcee6b3a3c4faff76","Firefox 85.0","encoding_b2",4,"SS5",8,626,3,1,1,0,"motor_trial","SS5",2,1,"pred","grocery store.png","clams.png",3,3
"09/02/2021 22:14:16","09/02/2021 17:14:17",40999,4,3008743,"5f3c23cbcee6b3a3c4faff76","Firefox 85.0","encoding_b2",4,"SS5",10,367,4,1,1,0,"motor_trial","SS5",2,1,"pred","grocery store.png","gummybears.png",4,4
"09/02/2021 22:14:20","09/02/2021 17:14:21",40999,4,3008743,"5f3c23cbcee6b3a3c4faff76","Firefox 85.0","encoding_b2",4,"SS5",12,532,2,1,1,0,"motor_trial","SS5",2,1,"pred","grocery store.png","dragonfruit.png",5,2
"09/02/2021 22:14:24","09/02/2021 17:14:24",40999,4,3008743,"5f3c23cbcee6b3a3c4faff76","Firefox 85.0","encoding_b2",4,"SS5",14,368,3,1,1,0,"motor_trial","SS5",2,1,"pred","grocery store.png","cupnoodle.png",6,3
"09/02/2021 22:14:32","09/02/2021 17:14:33",40999,4,3008743,"5f3c23cbcee6b3a3c4faff76","Firefox 85.0","encoding_b2",4,"SS5",18,771,2,1,1,0,"motor_trial","SS5",2,2,"rand","pet store.png","bettafish.png",1,2
"09/02/2021 22:14:36","09/02/2021 17:14:36",40999,4,3008743,"5f3c23cbcee6b3a3c4faff76","Firefox 85.0","encoding_b2",4,"SS5",20,478,4,1,1,0,"motor_trial","SS5",2,2,"rand","pet store.png","chameleon.png",2,4
"09/02/2021 22:14:39","09/02/2021 17:14:40",40999,4,3008743,"5f3c23cbcee6b3a3c4faff76","Firefox 85.0","encoding_b2",4,"SS5",22,397,3,1,1,0,"motor_trial","SS5",2,2,"rand","pet store.png","octopus.png",3,3
"09/02/2021 22:14:43","09/02/2021 17:14:44",40999,4,3008743,"5f3c23cbcee6b3a3c4faff76","Firefox 85.0","encoding_b2",4,"SS5",24,432,1,1,1,0,"motor_trial","SS5",2,2,"rand","pet store.png","ladybug.png",4,1
"09/02/2021 22:14:47","09/02/2021 17:14:48",40999,4,3008743,"5f3c23cbcee6b3a3c4faff76","Firefox 85.0","encoding_b2",4,"SS5",26,500,3,1,1,0,"motor_trial","SS5",2,2,"rand","pet store.png","gorilla.png",5,3
"09/02/2021 22:14:51","09/02/2021 17:14:51",40999,4,3008743,"5f3c23cbcee6b3a3c4faff76","Firefox 85.0","encoding_b2",4,"SS5",28,390,4,1,1,0,"motor_trial","SS5",2,2,"rand","pet store.png","killerwhale.png",6,4
"09/02/2021 22:14:59","09/02/2021 17:15:00",40999,4,3008743,"5f3c23cbcee6b3a3c4faff76","Firefox 85.0","encoding_b2",4,"SS5",32,748,1,1,1,0,"motor_trial","SS5",2,3,"pred","grocery store.png","mustard.png",1,1
"09/02/2021 22:15:29","09/02/2021 17:15:30",40999,4,3008743,"5f3c23cbcee6b3a3c4faff76","Firefox 85.0","encoding_b2",4,"SS5",34,840,4,1,1,0,"motor_trial","SS5",2,3,"pred","grocery store.png","cookies.png",2,4
"09/02/2021 22:15:33","09/02/2021 17:15:34",40999,4,3008743,"5f3c23cbcee6b3a3c4faff76","Firefox 85.0","encoding_b2",4,"SS5",36,828,3,1,1,0,"motor_trial","SS5",2,3,"pred","grocery store.png","cantaloupe.png",3,3
"09/02/2021 22:15:37","09/02/2021 17:15:38",40999,4,3008743,"5f3c23cbcee6b3a3c4faff76","Firefox 85.0","encoding_b2",4,"SS5",38,406,4,1,1,0,"motor_trial","SS5",2,3,"pred","grocery store.png","lemon.png",4,4
"09/02/2021 22:15:41","09/02/2021 17:15:42",40999,4,3008743,"5f3c23cbcee6b3a3c4faff76","Firefox 85.0","encoding_b2",4,"SS5",40,582,2,1,1,0,"motor_trial","SS5",2,3,"pred","grocery store.png","bellpeppers.png",5,2
"09/02/2021 22:15:45","09/02/2021 17:15:45",40999,4,3008743,"5f3c23cbcee6b3a3c4faff76","Firefox 85.0","encoding_b2",4,"SS5",42,420,3,1,1,0,"motor_trial","SS5",2,3,"pred","grocery store.png","acornsquash.png",6,3
"09/02/2021 22:15:53","09/02/2021 17:15:54",40999,4,3008743,"5f3c23cbcee6b3a3c4faff76","Firefox 85.0","encoding_b2",4,"SS5",46,689,3,1,1,0,"motor_trial","SS5",2,4,"rand","pet store.png","deer.png",1,3
"09/02/2021 22:15:57","09/02/2021 17:15:58",40999,4,3008743,"5f3c23cbcee6b3a3c4faff76","Firefox 85.0","encoding_b2",4,"SS5",48,631,1,1,1,0,"motor_trial","SS5",2,4,"rand","pet store.png","donkey.png",2,1
"09/02/2021 22:16:01","09/02/2021 17:16:01",40999,4,3008743,"5f3c23cbcee6b3a3c4faff76","Firefox 85.0","encoding_b2",4,"SS5",50,438,2,1,1,0,"motor_trial","SS5",2,4,"rand","pet store.png","eagle.png",3,2
"09/02/2021 22:16:04","09/02/2021 17:16:05",40999,4,3008743,"5f3c23cbcee6b3a3c4faff76","Firefox 85.0","encoding_b2",4,"SS5",52,594,1,1,1,0,"motor_trial","SS5",2,4,"rand","pet store.png","panther.png",4,1
"09/02/2021 22:16:08","09/02/2021 17:16:09",40999,4,3008743,"5f3c23cbcee6b3a3c4faff76","Firefox 85.0","encoding_b2",4,"SS5",54,420,4,1,1,0,"motor_trial","SS5",2,4,"rand","pet store.png","turkey.png",5,4
"09/02/2021 22:16:12","09/02/2021 17:16:13",40999,4,3008743,"5f3c23cbcee6b3a3c4faff76","Firefox 85.0","encoding_b2",4,"SS5",56,584,2,1,1,0,"motor_trial","SS5",2,4,"rand","pet store.png","rat.png",6,2
"09/02/2021 22:18:24","09/02/2021 17:18:24",40999,4,3008743,"5f3c23cbcee6b3a3c4faff76","Firefox 85.0","encoding_b3",2,"SS5",4,605,2,1,1,0,"motor_trial","SS5",3,1,"rand","pet store.png","zebra.png",1,2
"09/02/2021 22:18:28","09/02/2021 17:18:28",40999,4,3008743,"5f3c23cbcee6b3a3c4faff76","Firefox 85.0","encoding_b3",2,"SS5",6,578,4,1,1,0,"motor_trial","SS5",3,1,"rand","pet store.png","turtle.png",2,4
"09/02/2021 22:18:31","09/02/2021 17:18:32",40999,4,3008743,"5f3c23cbcee6b3a3c4faff76","Firefox 85.0","encoding_b3",2,"SS5",8,530,3,1,1,0,"motor_trial","SS5",3,1,"rand","pet store.png","chicken.png",3,3
"09/02/2021 22:18:35","09/02/2021 17:18:36",40999,4,3008743,"5f3c23cbcee6b3a3c4faff76","Firefox 85.0","encoding_b3",2,"SS5",10,499,1,1,1,0,"motor_trial","SS5",3,1,"rand","pet store.png","lemur.png",4,1
"09/02/2021 22:18:39","09/02/2021 17:18:40",40999,4,3008743,"5f3c23cbcee6b3a3c4faff76","Firefox 85.0","encoding_b3",2,"SS5",12,460,4,1,1,0,"motor_trial","SS5",3,1,"rand","pet store.png","sheep.png",5,4
"09/02/2021 22:18:43","09/02/2021 17:18:44",40999,4,3008743,"5f3c23cbcee6b3a3c4faff76","Firefox 85.0","encoding_b3",2,"SS5",14,515,1,1,1,0,"motor_trial","SS5",3,1,"rand","pet store.png","redpanda.png",6,1
"09/02/2021 22:18:51","09/02/2021 17:18:52",40999,4,3008743,"5f3c23cbcee6b3a3c4faff76","Firefox 85.0","encoding_b3",2,"SS5",18,453,1,1,1,0,"motor_trial","SS5",3,2,"pred","grocery store.png","orange.png",1,1
"09/02/2021 22:18:54","09/02/2021 17:18:55",40999,4,3008743,"5f3c23cbcee6b3a3c4faff76","Firefox 85.0","encoding_b3",2,"SS5",20,301,4,1,1,0,"motor_trial","SS5",3,2,"pred","grocery store.png","lychee.png",2,4
"09/02/2021 22:18:58","09/02/2021 17:18:59",40999,4,3008743,"5f3c23cbcee6b3a3c4faff76","Firefox 85.0","encoding_b3",2,"SS5",22,444,3,1,1,0,"motor_trial","SS5",3,2,"pred","grocery store.png","popcorn.png",3,3
"09/02/2021 22:19:09","09/02/2021 17:19:03",40999,4,3008743,"5f3c23cbcee6b3a3c4faff76","Firefox 85.0","encoding_b3",2,"SS5",24,403,4,1,1,0,"motor_trial","SS5",3,2,"pred","grocery store.png","cookedchicken.png",4,4
"09/02/2021 22:19:09","09/02/2021 17:19:06",40999,4,3008743,"5f3c23cbcee6b3a3c4faff76","Firefox 85.0","encoding_b3",2,"SS5",26,322,2,1,1,0,"motor_trial","SS5",3,2,"pred","grocery store.png","strawberries.png",5,2
"09/02/2021 22:19:09","09/02/2021 17:19:10",40999,4,3008743,"5f3c23cbcee6b3a3c4faff76","Firefox 85.0","encoding_b3",2,"SS5",28,366,3,1,1,0,"motor_trial","SS5",3,2,"pred","grocery store.png","kiwi.png",6,3
"09/02/2021 22:19:44","09/02/2021 17:19:45",40999,4,3008743,"5f3c23cbcee6b3a3c4faff76","Firefox 85.0","encoding_b3",2,"SS5",32,712,2,1,1,0,"motor_trial","SS5",3,3,"rand","pet store.png","vulture.png",1,2
"09/02/2021 22:19:48","09/02/2021 17:19:49",40999,4,3008743,"5f3c23cbcee6b3a3c4faff76","Firefox 85.0","encoding_b3",2,"SS5",34,457,3,1,1,0,"motor_trial","SS5",3,3,"rand","pet store.png","cardinal.png",2,3
"09/02/2021 22:19:52","09/02/2021 17:19:52",40999,4,3008743,"5f3c23cbcee6b3a3c4faff76","Firefox 85.0","encoding_b3",2,"SS5",36,616,1,1,1,0,"motor_trial","SS5",3,3,"rand","pet store.png","giraffe.png",3,1
"09/02/2021 22:19:56","09/02/2021 17:19:57",40999,4,3008743,"5f3c23cbcee6b3a3c4faff76","Firefox 85.0","encoding_b3",2,"SS5",38,768,3,1,1,0,"motor_trial","SS5",3,3,"rand","pet store.png","badger.png",4,3
"09/02/2021 22:19:59","09/02/2021 17:20:00",40999,4,3008743,"5f3c23cbcee6b3a3c4faff76","Firefox 85.0","encoding_b3",2,"SS5",40,385,4,1,1,0,"motor_trial","SS5",3,3,"rand","pet store.png","wolf.png",5,4
"09/02/2021 22:20:03","09/02/2021 17:20:04",40999,4,3008743,"5f3c23cbcee6b3a3c4faff76","Firefox 85.0","encoding_b3",2,"SS5",42,575,1,1,1,0,"motor_trial","SS5",3,3,"rand","pet store.png","polarbear.png",6,1
"09/02/2021 22:20:12","09/02/2021 17:20:12",40999,4,3008743,"5f3c23cbcee6b3a3c4faff76","Firefox 85.0","encoding_b3",2,"SS5",46,653,1,1,1,0,"motor_trial","SS5",3,4,"pred","grocery store.png","tomato.png",1,1
"09/02/2021 22:20:15","09/02/2021 17:20:16",40999,4,3008743,"5f3c23cbcee6b3a3c4faff76","Firefox 85.0","encoding_b3",2,"SS5",48,550,4,1,1,0,"motor_trial","SS5",3,4,"pred","grocery store.png","seaweed.png",2,4
"09/02/2021 22:20:19","09/02/2021 17:20:20",40999,4,3008743,"5f3c23cbcee6b3a3c4faff76","Firefox 85.0","encoding_b3",2,"SS5",50,337,3,1,1,0,"motor_trial","SS5",3,4,"pred","grocery store.png","blackpepper.png",3,3
"09/02/2021 22:20:23","09/02/2021 17:20:24",40999,4,3008743,"5f3c23cbcee6b3a3c4faff76","Firefox 85.0","encoding_b3",2,"SS5",52,339,4,1,1,0,"motor_trial","SS5",3,4,"pred","grocery store.png","corn.png",4,4
"09/02/2021 22:20:26","09/02/2021 17:20:27",40999,4,3008743,"5f3c23cbcee6b3a3c4faff76","Firefox 85.0","encoding_b3",2,"SS5",54,296,2,1,1,0,"motor_trial","SS5",3,4,"pred","grocery store.png","burger.png",5,2
"09/02/2021 22:20:30","09/02/2021 17:20:31",40999,4,3008743,"5f3c23cbcee6b3a3c4faff76","Firefox 85.0","encoding_b3",2,"SS5",56,370,3,1,1,0,"motor_trial","SS5",3,4,"pred","grocery store.png","sandwich.png",6,3
"09/02/2021 22:22:32","09/02/2021 17:22:33",40999,4,3008743,"5f3c23cbcee6b3a3c4faff76","Firefox 85.0","encoding_b4",2,"SS5",4,888,4,1,1,0,"motor_trial","SS5",4,1,"rand","pet store.png","bear.png",1,4
"09/02/2021 22:22:55","09/02/2021 17:22:56",40999,4,3008743,"5f3c23cbcee6b3a3c4faff76","Firefox 85.0","encoding_b4",2,"SS5",6,743,2,1,1,0,"motor_trial","SS5",4,1,"rand","pet store.png","hedgehog.png",2,2
"09/02/2021 22:22:59","09/02/2021 17:23:00",40999,4,3008743,"5f3c23cbcee6b3a3c4faff76","Firefox 85.0","encoding_b4",2,"SS5",8,650,3,1,1,0,"motor_trial","SS5",4,1,"rand","pet store.png","cat.png",3,3
"09/02/2021 22:23:03","09/02/2021 17:23:04",40999,4,3008743,"5f3c23cbcee6b3a3c4faff76","Firefox 85.0","encoding_b4",2,"SS5",10,560,1,1,1,0,"motor_trial","SS5",4,1,"rand","pet store.png","armadillo.png",4,1
"09/02/2021 22:23:07","09/02/2021 17:23:08",40999,4,3008743,"5f3c23cbcee6b3a3c4faff76","Firefox 85.0","encoding_b4",2,"SS5",12,510,2,1,1,0,"motor_trial","SS5",4,1,"rand","pet store.png","moose.png",5,2
"09/02/2021 22:23:11","09/02/2021 17:23:12",40999,4,3008743,"5f3c23cbcee6b3a3c4faff76","Firefox 85.0","encoding_b4",2,"SS5",14,488,1,1,1,0,"motor_trial","SS5",4,1,"rand","pet store.png","snake.png",6,1
"09/02/2021 22:23:19","09/02/2021 17:23:20",40999,4,3008743,"5f3c23cbcee6b3a3c4faff76","Firefox 85.0","encoding_b4",2,"SS5",18,528,4,1,1,0,"motor_trial","SS5",4,2,"rand","pet store.png","canadiangoose.png",1,4
"09/02/2021 22:23:23","09/02/2021 17:23:23",40999,4,3008743,"5f3c23cbcee6b3a3c4faff76","Firefox 85.0","encoding_b4",2,"SS5",20,478,1,1,1,0,"motor_trial","SS5",4,2,"rand","pet store.png","rabbit.png",2,1
"09/02/2021 22:23:26","09/02/2021 17:23:27",40999,4,3008743,"5f3c23cbcee6b3a3c4faff76","Firefox 85.0","encoding_b4",2,"SS5",22,433,3,1,1,0,"motor_trial","SS5",4,2,"rand","pet store.png","bat.png",3,3
"09/02/2021 22:23:30","09/02/2021 17:23:31",40999,4,3008743,"5f3c23cbcee6b3a3c4faff76","Firefox 85.0","encoding_b4",2,"SS5",24,559,2,1,1,0,"motor_trial","SS5",4,2,"rand","pet store.png","elephant.png",4,2
"09/02/2021 22:23:34","09/02/2021 17:23:35",40999,4,3008743,"5f3c23cbcee6b3a3c4faff76","Firefox 85.0","encoding_b4",2,"SS5",26,580,3,1,1,0,"motor_trial","SS5",4,2,"rand","pet store.png","fox.png",5,3
"09/02/2021 22:23:38","09/02/2021 17:23:39",40999,4,3008743,"5f3c23cbcee6b3a3c4faff76","Firefox 85.0","encoding_b4",2,"SS5",28,535,1,1,1,0,"motor_trial","SS5",4,2,"rand","pet store.png","frog.png",6,1
"09/02/2021 22:23:46","09/02/2021 17:23:47",40999,4,3008743,"5f3c23cbcee6b3a3c4faff76","Firefox 85.0","encoding_b4",2,"SS5",32,638,1,1,1,0,"motor_trial","SS5",4,3,"pred","grocery store.png","cheese.png",1,1
"09/02/2021 22:23:50","09/02/2021 17:23:51",40999,4,3008743,"5f3c23cbcee6b3a3c4faff76","Firefox 85.0","encoding_b4",2,"SS5",34,404,4,1,1,0,"motor_trial","SS5",4,3,"pred","grocery store.png","taco.png",2,4
"09/02/2021 22:23:54","09/02/2021 17:23:54",40999,4,3008743,"5f3c23cbcee6b3a3c4faff76","Firefox 85.0","encoding_b4",2,"SS5",36,312,3,1,1,0,"motor_trial","SS5",4,3,"pred","grocery store.png","walnuts.png",3,3
"09/02/2021 22:23:57","09/02/2021 17:23:58",40999,4,3008743,"5f3c23cbcee6b3a3c4faff76","Firefox 85.0","encoding_b4",2,"SS5",38,347,4,1,1,0,"motor_trial","SS5",4,3,"pred","grocery store.png","burrito.png",4,4
"09/02/2021 22:24:01","09/02/2021 17:24:02",40999,4,3008743,"5f3c23cbcee6b3a3c4faff76","Firefox 85.0","encoding_b4",2,"SS5",40,334,2,1,1,0,"motor_trial","SS5",4,3,"pred","grocery store.png","cereal.png",5,2
"09/02/2021 22:24:05","09/02/2021 17:24:05",40999,4,3008743,"5f3c23cbcee6b3a3c4faff76","Firefox 85.0","encoding_b4",2,"SS5",42,343,3,1,1,0,"motor_trial","SS5",4,3,"pred","grocery store.png","pizza.png",6,3
"09/02/2021 22:24:13","09/02/2021 17:24:14",40999,4,3008743,"5f3c23cbcee6b3a3c4faff76","Firefox 85.0","encoding_b4",2,"SS5",46,605,1,1,1,0,"motor_trial","SS5",4,4,"pred","grocery store.png","ravioli.png",1,1
"09/02/2021 22:24:17","09/02/2021 17:24:17",40999,4,3008743,"5f3c23cbcee6b3a3c4faff76","Firefox 85.0","encoding_b4",2,"SS5",48,443,4,1,1,0,"motor_trial","SS5",4,4,"pred","grocery store.png","egg.png",2,4
"09/02/2021 22:24:21","09/02/2021 17:24:21",40999,4,3008743,"5f3c23cbcee6b3a3c4faff76","Firefox 85.0","encoding_b4",2,"SS5",50,401,3,1,1,0,"motor_trial","SS5",4,4,"pred","grocery store.png","beet.png",3,3
"09/02/2021 22:24:24","09/02/2021 17:24:25",40999,4,3008743,"5f3c23cbcee6b3a3c4faff76","Firefox 85.0","encoding_b4",2,"SS5",52,496,4,1,1,0,"motor_trial","SS5",4,4,"pred","grocery store.png","peaches.png",4,4
"09/02/2021 22:24:28","09/02/2021 17:24:29",40999,4,3008743,"5f3c23cbcee6b3a3c4faff76","Firefox 85.0","encoding_b4",2,"SS5",54,303,2,1,1,0,"motor_trial","SS5",4,4,"pred","grocery store.png","bacon.png",5,2
"09/02/2021 22:24:32","09/02/2021 17:24:32",40999,4,3008743,"5f3c23cbcee6b3a3c4faff76","Firefox 85.0","encoding_b4",2,"SS5",56,414,3,1,1,0,"motor_trial","SS5",4,4,"pred","grocery store.png","ramen.png",6,3
"09/02/2021 22:26:55","09/02/2021 17:26:56",40999,4,3008743,"5f3c23cbcee6b3a3c4faff76","Firefox 85.0","encoding_b5",2,"SS5",4,826,1,1,1,0,"motor_trial","SS5",5,1,"pred","grocery store.png","croissant.png",1,1
"09/02/2021 22:26:59","09/02/2021 17:27:00",40999,4,3008743,"5f3c23cbcee6b3a3c4faff76","Firefox 85.0","encoding_b5",2,"SS5",6,591,4,1,1,0,"motor_trial","SS5",5,1,"pred","grocery store.png","bagel.png",2,4
"09/02/2021 22:27:03","09/02/2021 17:27:03",40999,4,3008743,"5f3c23cbcee6b3a3c4faff76","Firefox 85.0","encoding_b5",2,"SS5",8,591,3,1,1,0,"motor_trial","SS5",5,1,"pred","grocery store.png","bread.png",3,3
"09/02/2021 22:27:07","09/02/2021 17:27:07",40999,4,3008743,"5f3c23cbcee6b3a3c4faff76","Firefox 85.0","encoding_b5",2,"SS5",10,615,4,1,1,0,"motor_trial","SS5",5,1,"pred","grocery store.png","butter.png",4,4
"09/02/2021 22:27:10","09/02/2021 17:27:11",40999,4,3008743,"5f3c23cbcee6b3a3c4faff76","Firefox 85.0","encoding_b5",2,"SS5",12,422,2,1,1,0,"motor_trial","SS5",5,1,"pred","grocery store.png","avocado.png",5,2
"09/02/2021 22:27:14","09/02/2021 17:27:15",40999,4,3008743,"5f3c23cbcee6b3a3c4faff76","Firefox 85.0","encoding_b5",2,"SS5",14,462,3,1,1,0,"motor_trial","SS5",5,1,"pred","grocery store.png","granola.png",6,3
"09/02/2021 22:27:22","09/02/2021 17:27:23",40999,4,3008743,"5f3c23cbcee6b3a3c4faff76","Firefox 85.0","encoding_b5",2,"SS5",18,649,1,1,1,0,"motor_trial","SS5",5,2,"pred","grocery store.png","dumplings.png",1,1
"09/02/2021 22:27:26","09/02/2021 17:27:27",40999,4,3008743,"5f3c23cbcee6b3a3c4faff76","Firefox 85.0","encoding_b5",2,"SS5",20,440,4,1,1,0,"motor_trial","SS5",5,2,"pred","grocery store.png","coconut.png",2,4
"09/02/2021 22:27:30","09/02/2021 17:27:31",40999,4,3008743,"5f3c23cbcee6b3a3c4faff76","Firefox 85.0","encoding_b5",2,"SS5",22,379,3,1,1,0,"motor_trial","SS5",5,2,"pred","grocery store.png","apple.png",3,3
"09/02/2021 22:27:34","09/02/2021 17:27:35",40999,4,3008743,"5f3c23cbcee6b3a3c4faff76","Firefox 85.0","encoding_b5",2,"SS5",24,487,4,1,1,0,"motor_trial","SS5",5,2,"pred","grocery store.png","rice.png",4,4
"09/02/2021 22:27:37","09/02/2021 17:27:38",40999,4,3008743,"5f3c23cbcee6b3a3c4faff76","Firefox 85.0","encoding_b5",2,"SS5",26,368,2,1,1,0,"motor_trial","SS5",5,2,"pred","grocery store.png","chocolatemilk.png",5,2
"09/02/2021 22:27:41","09/02/2021 17:27:42",40999,4,3008743,"5f3c23cbcee6b3a3c4faff76","Firefox 85.0","encoding_b5",2,"SS5",28,549,3,1,1,0,"motor_trial","SS5",5,2,"pred","grocery store.png","pancakes.png",6,3
"09/02/2021 22:27:50","09/02/2021 17:27:50",40999,4,3008743,"5f3c23cbcee6b3a3c4faff76","Firefox 85.0","encoding_b5",2,"SS5",32,721,3,1,1,0,"motor_trial","SS5",5,3,"rand","pet store.png","caterpillar.png",1,3
"09/02/2021 22:27:53","09/02/2021 17:27:54",40999,4,3008743,"5f3c23cbcee6b3a3c4faff76","Firefox 85.0","encoding_b5",2,"SS5",34,510,1,1,1,0,"motor_trial","SS5",5,3,"rand","pet store.png","hammerheadshark.png",2,1
"09/02/2021 22:27:57","09/02/2021 17:27:58",40999,4,3008743,"5f3c23cbcee6b3a3c4faff76","Firefox 85.0","encoding_b5",2,"SS5",36,528,4,1,1,0,"motor_trial","SS5",5,3,"rand","pet store.png","whale.png",3,4
"09/02/2021 22:28:01","09/02/2021 17:28:02",40999,4,3008743,"5f3c23cbcee6b3a3c4faff76","Firefox 85.0","encoding_b5",2,"SS5",38,542,1,1,1,0,"motor_trial","SS5",5,3,"rand","pet store.png","crab.png",4,1
"09/02/2021 22:28:05","09/02/2021 17:28:06",40999,4,3008743,"5f3c23cbcee6b3a3c4faff76","Firefox 85.0","encoding_b5",2,"SS5",40,433,2,1,1,0,"motor_trial","SS5",5,3,"rand","pet store.png","panda.png",5,2
"09/02/2021 22:28:09","09/02/2021 17:28:09",40999,4,3008743,"5f3c23cbcee6b3a3c4faff76","Firefox 85.0","encoding_b5",2,"SS5",42,430,4,1,1,0,"motor_trial","SS5",5,3,"rand","pet store.png","shark.png",6,4
"09/02/2021 22:28:17","09/02/2021 17:28:18",40999,4,3008743,"5f3c23cbcee6b3a3c4faff76","Firefox 85.0","encoding_b5",2,"SS5",46,688,3,1,1,0,"motor_trial","SS5",5,4,"rand","pet store.png","hermitcrab.png",1,3
"09/02/2021 22:28:21","09/02/2021 17:28:21",40999,4,3008743,"5f3c23cbcee6b3a3c4faff76","Firefox 85.0","encoding_b5",2,"SS5",48,426,4,1,1,0,"motor_trial","SS5",5,4,"rand","pet store.png","bloodhound.png",2,4
"09/02/2021 22:28:25","09/02/2021 17:28:25",40999,4,3008743,"5f3c23cbcee6b3a3c4faff76","Firefox 85.0","encoding_b5",2,"SS5",50,580,2,1,1,0,"motor_trial","SS5",5,4,"rand","pet store.png","cuttlefish.png",3,2
"09/02/2021 22:28:28","09/02/2021 17:28:29",40999,4,3008743,"5f3c23cbcee6b3a3c4faff76","Firefox 85.0","encoding_b5",2,"SS5",52,417,1,1,1,0,"motor_trial","SS5",5,4,"rand","pet store.png","cow.png",4,1
"09/02/2021 22:28:32","09/02/2021 17:28:33",40999,4,3008743,"5f3c23cbcee6b3a3c4faff76","Firefox 85.0","encoding_b5",2,"SS5",54,458,4,1,1,0,"motor_trial","SS5",5,4,"rand","pet store.png","crow.png",5,4
"09/02/2021 22:28:36","09/02/2021 17:28:37",40999,4,3008743,"5f3c23cbcee6b3a3c4faff76","Firefox 85.0","encoding_b5",2,"SS5",56,505,1,1,1,0,"motor_trial","SS5",5,4,"rand","pet store.png","rhino.png",6,1
"09/02/2021 22:30:56","09/02/2021 17:30:57",40999,4,3008743,"5f3c23cbcee6b3a3c4faff76","Firefox 85.0","encoding_b6",2,"SS5",4,659,2,1,1,0,"motor_trial","SS5",6,1,"rand","pet store.png","camel.png",1,2
"09/02/2021 22:31:00","09/02/2021 17:31:01",40999,4,3008743,"5f3c23cbcee6b3a3c4faff76","Firefox 85.0","encoding_b6",2,"SS5",6,613,1,1,1,0,"motor_trial","SS5",6,1,"rand","pet store.png","bison.png",2,1
"09/02/2021 22:31:04","09/02/2021 17:31:05",40999,4,3008743,"5f3c23cbcee6b3a3c4faff76","Firefox 85.0","encoding_b6",2,"SS5",8,798,4,1,1,0,"motor_trial","SS5",6,1,"rand","pet store.png","beetle.png",3,4
"09/02/2021 22:31:08","09/02/2021 17:31:09",40999,4,3008743,"5f3c23cbcee6b3a3c4faff76","Firefox 85.0","encoding_b6",2,"SS5",10,538,3,1,1,0,"motor_trial","SS5",6,1,"rand","pet store.png","manatee.png",4,3
"09/02/2021 22:31:12","09/02/2021 17:31:13",40999,4,3008743,"5f3c23cbcee6b3a3c4faff76","Firefox 85.0","encoding_b6",2,"SS5",12,454,4,1,1,0,"motor_trial","SS5",6,1,"rand","pet store.png","dragonfly.png",5,4
"09/02/2021 22:31:16","09/02/2021 17:31:17",40999,4,3008743,"5f3c23cbcee6b3a3c4faff76","Firefox 85.0","encoding_b6",2,"SS5",14,521,1,1,1,0,"motor_trial","SS5",6,1,"rand","pet store.png","mantis.png",6,1
"09/02/2021 22:31:24","09/02/2021 17:31:25",40999,4,3008743,"5f3c23cbcee6b3a3c4faff76","Firefox 85.0","encoding_b6",2,"SS5",18,716,1,1,1,0,"motor_trial","SS5",6,2,"pred","grocery store.png","garlic.png",1,1
"09/02/2021 22:31:28","09/02/2021 17:31:29",40999,4,3008743,"5f3c23cbcee6b3a3c4faff76","Firefox 85.0","encoding_b6",2,"SS5",20,341,4,1,1,0,"motor_trial","SS5",6,2,"pred","grocery store.png","donut.png",2,4
"09/02/2021 22:31:32","09/02/2021 17:31:32",40999,4,3008743,"5f3c23cbcee6b3a3c4faff76","Firefox 85.0","encoding_b6",2,"SS5",22,625,3,1,1,0,"motor_trial","SS5",6,2,"pred","grocery store.png","jalapeno.png",3,3
"09/02/2021 22:31:35","09/02/2021 17:31:36",40999,4,3008743,"5f3c23cbcee6b3a3c4faff76","Firefox 85.0","encoding_b6",2,"SS5",24,393,4,1,1,0,"motor_trial","SS5",6,2,"pred","grocery store.png","smores.png",4,4
"09/02/2021 22:31:39","09/02/2021 17:31:40",40999,4,3008743,"5f3c23cbcee6b3a3c4faff76","Firefox 85.0","encoding_b6",2,"SS5",26,401,2,1,1,0,"motor_trial","SS5",6,2,"pred","grocery store.png","soup.png",5,2
"09/02/2021 22:32:09","09/02/2021 17:32:10",40999,4,3008743,"5f3c23cbcee6b3a3c4faff76","Firefox 85.0","encoding_b6",2,"SS5",28,416,3,1,1,0,"motor_trial","SS5",6,2,"pred","grocery store.png","pineapple.png",6,3
"09/02/2021 22:32:17","09/02/2021 17:32:18",40999,4,3008743,"5f3c23cbcee6b3a3c4faff76","Firefox 85.0","encoding_b6",2,"SS5",32,780,4,1,1,0,"motor_trial","SS5",6,3,"rand","pet store.png","ostrich.png",1,4
"09/02/2021 22:32:21","09/02/2021 17:32:22",40999,4,3008743,"5f3c23cbcee6b3a3c4faff76","Firefox 85.0","encoding_b6",2,"SS5",34,544,2,1,1,0,"motor_trial","SS5",6,3,"rand","pet store.png","goose.png",2,2
"09/02/2021 22:32:25","09/02/2021 17:32:26",40999,4,3008743,"5f3c23cbcee6b3a3c4faff76","Firefox 85.0","encoding_b6",2,"SS5",36,430,3,1,1,0,"motor_trial","SS5",6,3,"rand","pet store.png","emu.png",3,3
"09/02/2021 22:32:29","09/02/2021 17:32:30",40999,4,3008743,"5f3c23cbcee6b3a3c4faff76","Firefox 85.0","encoding_b6",2,"SS5",38,424,1,1,1,0,"motor_trial","SS5",6,3,"rand","pet store.png","walrus.png",4,1
"09/02/2021 22:32:33","09/02/2021 17:32:34",40999,4,3008743,"5f3c23cbcee6b3a3c4faff76","Firefox 85.0","encoding_b6",2,"SS5",40,559,3,1,1,0,"motor_trial","SS5",6,3,"rand","pet store.png","tiger.png",5,3
"09/02/2021 22:32:37","09/02/2021 17:32:37",40999,4,3008743,"5f3c23cbcee6b3a3c4faff76","Firefox 85.0","encoding_b6",2,"SS5",42,535,2,1,1,0,"motor_trial","SS5",6,3,"rand","pet store.png","platypus.png",6,2
"09/02/2021 22:32:45","09/02/2021 17:32:46",40999,4,3008743,"5f3c23cbcee6b3a3c4faff76","Firefox 85.0","encoding_b6",2,"SS5",46,571,1,1,1,0,"motor_trial","SS5",6,4,"pred","grocery store.png","cake.png",1,1
"09/02/2021 22:32:48","09/02/2021 17:32:49",40999,4,3008743,"5f3c23cbcee6b3a3c4faff76","Firefox 85.0","encoding_b6",2,"SS5",48,377,4,1,1,0,"motor_trial","SS5",6,4,"pred","grocery store.png","muffin.png",2,4
"09/02/2021 22:32:52","09/02/2021 17:32:53",40999,4,3008743,"5f3c23cbcee6b3a3c4faff76","Firefox 85.0","encoding_b6",2,"SS5",50,360,3,1,1,0,"motor_trial","SS5",6,4,"pred","grocery store.png","pretzel.png",3,3
"09/02/2021 22:32:56","09/02/2021 17:32:57",40999,4,3008743,"5f3c23cbcee6b3a3c4faff76","Firefox 85.0","encoding_b6",2,"SS5",52,352,4,1,1,0,"motor_trial","SS5",6,4,"pred","grocery store.png","edamame.png",4,4
"09/02/2021 22:32:59","09/02/2021 17:33:00",40999,4,3008743,"5f3c23cbcee6b3a3c4faff76","Firefox 85.0","encoding_b6",2,"SS5",54,286,2,1,1,0,"motor_trial","SS5",6,4,"pred","grocery store.png","salad.png",5,2
"09/02/2021 22:33:03","09/02/2021 17:33:04",40999,4,3008743,"5f3c23cbcee6b3a3c4faff76","Firefox 85.0","encoding_b6",2,"SS5",56,370,3,1,1,0,"motor_trial","SS5",6,4,"pred","grocery store.png","hummus.png",6,3
"09/02/2021 22:35:05","09/02/2021 17:35:06",40999,4,3008743,"5f3c23cbcee6b3a3c4faff76","Firefox 85.0","encoding_b7",2,"SS5",4,637,1,1,1,0,"motor_trial","SS5",7,1,"pred","grocery store.png","grapes.png",1,1
"09/02/2021 22:35:09","09/02/2021 17:35:09",40999,4,3008743,"5f3c23cbcee6b3a3c4faff76","Firefox 85.0","encoding_b7",2,"SS5",6,464,4,1,1,0,"motor_trial","SS5",7,1,"pred","grocery store.png","asparagus.png",2,4
"09/02/2021 22:35:12","09/02/2021 17:35:13",40999,4,3008743,"5f3c23cbcee6b3a3c4faff76","Firefox 85.0","encoding_b7",2,"SS5",8,434,3,1,1,0,"motor_trial","SS5",7,1,"pred","grocery store.png","fortunecookie.png",3,3
"09/02/2021 22:35:16","09/02/2021 17:35:17",40999,4,3008743,"5f3c23cbcee6b3a3c4faff76","Firefox 85.0","encoding_b7",2,"SS5",10,581,4,1,1,0,"motor_trial","SS5",7,1,"pred","grocery store.png","milk.png",4,4
"09/02/2021 22:35:20","09/02/2021 17:35:21",40999,4,3008743,"5f3c23cbcee6b3a3c4faff76","Firefox 85.0","encoding_b7",2,"SS5",12,584,2,1,1,0,"motor_trial","SS5",7,1,"pred","grocery store.png","brusselsprouts.png",5,2
"09/02/2021 22:35:24","09/02/2021 17:35:25",40999,4,3008743,"5f3c23cbcee6b3a3c4faff76","Firefox 85.0","encoding_b7",2,"SS5",14,332,3,1,1,0,"motor_trial","SS5",7,1,"pred","grocery store.png","icecreamsandwich.png",6,3
"09/02/2021 22:35:32","09/02/2021 17:35:33",40999,4,3008743,"5f3c23cbcee6b3a3c4faff76","Firefox 85.0","encoding_b7",2,"SS5",18,678,2,1,1,0,"motor_trial","SS5",7,2,"rand","pet store.png","seahorse.png",1,2
"09/02/2021 22:35:36","09/02/2021 17:35:37",40999,4,3008743,"5f3c23cbcee6b3a3c4faff76","Firefox 85.0","encoding_b7",2,"SS5",20,512,3,1,1,0,"motor_trial","SS5",7,2,"rand","pet store.png","horse.png",2,3
"09/02/2021 22:35:40","09/02/2021 17:35:41",40999,4,3008743,"5f3c23cbcee6b3a3c4faff76","Firefox 85.0","encoding_b7",2,"SS5",22,500,1,1,1,0,"motor_trial","SS5",7,2,"rand","pet store.png","squid.png",3,1
"09/02/2021 22:35:44","09/02/2021 17:35:44",40999,4,3008743,"5f3c23cbcee6b3a3c4faff76","Firefox 85.0","encoding_b7",2,"SS5",24,505,4,1,1,0,"motor_trial","SS5",7,2,"rand","pet store.png","cheetah.png",4,4
"09/02/2021 22:35:48","09/02/2021 17:35:48",40999,4,3008743,"5f3c23cbcee6b3a3c4faff76","Firefox 85.0","encoding_b7",2,"SS5",26,642,1,1,1,0,"motor_trial","SS5",7,2,"rand","pet store.png","squirrel.png",5,1
"09/02/2021 22:35:51","09/02/2021 17:35:52",40999,4,3008743,"5f3c23cbcee6b3a3c4faff76","Firefox 85.0","encoding_b7",2,"SS5",28,386,3,1,1,0,"motor_trial","SS5",7,2,"rand","pet store.png","lion.png",6,3
"09/02/2021 22:35:59","09/02/2021 17:36:00",40999,4,3008743,"5f3c23cbcee6b3a3c4faff76","Firefox 85.0","encoding_b7",2,"SS5",32,349,1,1,1,0,"motor_trial","SS5",7,3,"pred","grocery store.png","bakedpotato.png",1,1
"09/02/2021 22:36:03","09/02/2021 17:36:04",40999,4,3008743,"5f3c23cbcee6b3a3c4faff76","Firefox 85.0","encoding_b7",2,"SS5",34,338,4,1,1,0,"motor_trial","SS5",7,3,"pred","grocery store.png","cinnamon.png",2,4
"09/02/2021 22:36:07","09/02/2021 17:36:07",40999,4,3008743,"5f3c23cbcee6b3a3c4faff76","Firefox 85.0","encoding_b7",2,"SS5",36,385,3,1,1,0,"motor_trial","SS5",7,3,"pred","grocery store.png","chocolate.png",3,3
"09/02/2021 22:36:10","09/02/2021 17:36:11",40999,4,3008743,"5f3c23cbcee6b3a3c4faff76","Firefox 85.0","encoding_b7",2,"SS5",38,274,4,1,1,0,"motor_trial","SS5",7,3,"pred","grocery store.png","artichoke.png",4,4
"09/02/2021 22:36:14","09/02/2021 17:36:15",40999,4,3008743,"5f3c23cbcee6b3a3c4faff76","Firefox 85.0","encoding_b7",2,"SS5",40,343,2,1,1,0,"motor_trial","SS5",7,3,"pred","grocery store.png","cherries.png",5,2
"09/02/2021 22:36:18","09/02/2021 17:36:18",40999,4,3008743,"5f3c23cbcee6b3a3c4faff76","Firefox 85.0","encoding_b7",2,"SS5",42,397,3,1,1,0,"motor_trial","SS5",7,3,"pred","grocery store.png","pork.png",6,3
"09/02/2021 22:36:26","09/02/2021 17:36:27",40999,4,3008743,"5f3c23cbcee6b3a3c4faff76","Firefox 85.0","encoding_b7",2,"SS5",46,589,3,1,1,0,"motor_trial","SS5",7,4,"rand","pet store.png","koala.png",1,3
"09/02/2021 22:36:30","09/02/2021 17:36:30",40999,4,3008743,"5f3c23cbcee6b3a3c4faff76","Firefox 85.0","encoding_b7",2,"SS5",48,585,1,1,1,0,"motor_trial","SS5",7,4,"rand","pet store.png","grasshopper.png",2,1
"09/02/2021 22:36:33","09/02/2021 17:36:34",40999,4,3008743,"5f3c23cbcee6b3a3c4faff76","Firefox 85.0","encoding_b7",2,"SS5",50,431,4,1,1,0,"motor_trial","SS5",7,4,"rand","pet store.png","kangaroo.png",3,4
"09/02/2021 22:36:37","09/02/2021 17:36:38",40999,4,3008743,"5f3c23cbcee6b3a3c4faff76","Firefox 85.0","encoding_b7",2,"SS5",52,418,2,1,1,0,"motor_trial","SS5",7,4,"rand","pet store.png","surgeonfish.png",4,2
"09/02/2021 22:36:41","09/02/2021 17:36:42",40999,4,3008743,"5f3c23cbcee6b3a3c4faff76","Firefox 85.0","encoding_b7",2,"SS5",54,550,4,1,1,0,"motor_trial","SS5",7,4,"rand","pet store.png","tortoise.png",5,4
"09/02/2021 22:36:45","09/02/2021 17:36:46",40999,4,3008743,"5f3c23cbcee6b3a3c4faff76","Firefox 85.0","encoding_b7",2,"SS5",56,585,1,1,1,0,"motor_trial","SS5",7,4,"rand","pet store.png","butterfly.png",6,1
"09/02/2021 22:38:46","09/02/2021 17:38:47",40999,4,3008743,"5f3c23cbcee6b3a3c4faff76","Firefox 85.0","encoding_b8",2,"SS5",4,675,3,1,1,0,"motor_trial","SS5",8,1,"rand","pet store.png","pelican.png",1,3
"09/02/2021 22:38:50","09/02/2021 17:38:51",40999,4,3008743,"5f3c23cbcee6b3a3c4faff76","Firefox 85.0","encoding_b8",2,"SS5",6,517,2,1,1,0,"motor_trial","SS5",8,1,"rand","pet store.png","toad.png",2,2
"09/02/2021 22:38:54","09/02/2021 17:38:55",40999,4,3008743,"5f3c23cbcee6b3a3c4faff76","Firefox 85.0","encoding_b8",2,"SS5",8,648,4,1,1,0,"motor_trial","SS5",8,1,"rand","pet store.png","flamingo.png",3,4
"09/02/2021 22:38:58","09/02/2021 17:38:59",40999,4,3008743,"5f3c23cbcee6b3a3c4faff76","Firefox 85.0","encoding_b8",2,"SS5",10,680,1,1,1,0,"motor_trial","SS5",8,1,"rand","pet store.png","snail.png",4,1
"09/02/2021 22:39:02","09/02/2021 17:39:03",40999,4,3008743,"5f3c23cbcee6b3a3c4faff76","Firefox 85.0","encoding_b8",2,"SS5",12,660,4,1,1,0,"motor_trial","SS5",8,1,"rand","pet store.png","iguana.png",5,4
"09/02/2021 22:39:06","09/02/2021 17:39:06",40999,4,3008743,"5f3c23cbcee6b3a3c4faff76","Firefox 85.0","encoding_b8",2,"SS5",14,411,2,1,1,0,"motor_trial","SS5",8,1,"rand","pet store.png","hummingbird.png",6,2
"09/02/2021 22:39:14","09/02/2021 17:39:15",40999,4,3008743,"5f3c23cbcee6b3a3c4faff76","Firefox 85.0","encoding_b8",2,"SS5",18,611,3,1,1,0,"motor_trial","SS5",8,2,"rand","pet store.png","toucan.png",1,3
"09/02/2021 22:39:17","09/02/2021 17:39:18",40999,4,3008743,"5f3c23cbcee6b3a3c4faff76","Firefox 85.0","encoding_b8",2,"SS5",20,448,4,1,1,0,"motor_trial","SS5",8,2,"rand","pet store.png","pangolin.png",2,4
"09/02/2021 22:39:21","09/02/2021 17:39:22",40999,4,3008743,"5f3c23cbcee6b3a3c4faff76","Firefox 85.0","encoding_b8",2,"SS5",22,474,2,1,1,0,"motor_trial","SS5",8,2,"rand","pet store.png","chimp.png",3,2
"09/02/2021 22:39:25","09/02/2021 17:39:26",40999,4,3008743,"5f3c23cbcee6b3a3c4faff76","Firefox 85.0","encoding_b8",2,"SS5",24,485,4,1,1,0,"motor_trial","SS5",8,2,"rand","pet store.png","goat.png",4,4
"09/02/2021 22:39:29","09/02/2021 17:39:30",40999,4,3008743,"5f3c23cbcee6b3a3c4faff76","Firefox 85.0","encoding_b8",2,"SS5",26,396,1,1,1,0,"motor_trial","SS5",8,2,"rand","pet store.png","penguin.png",5,1
"09/02/2021 22:39:33","09/02/2021 17:39:33",40999,4,3008743,"5f3c23cbcee6b3a3c4faff76","Firefox 85.0","encoding_b8",2,"SS5",28,455,2,1,1,0,"motor_trial","SS5",8,2,"rand","pet store.png","goldenretriever.png",6,2
"09/02/2021 22:39:41","09/02/2021 17:39:41",40999,4,3008743,"5f3c23cbcee6b3a3c4faff76","Firefox 85.0","encoding_b8",2,"SS5",32,423,1,1,1,0,"motor_trial","SS5",8,3,"pred","grocery store.png","carrots.png",1,1
"09/02/2021 22:39:59","09/02/2021 17:40:00",40999,4,3008743,"5f3c23cbcee6b3a3c4faff76","Firefox 85.0","encoding_b8",2,"SS5",34,393,4,1,1,0,"motor_trial","SS5",8,3,"pred","grocery store.png","waffle.png",2,4
"09/02/2021 22:40:03","09/02/2021 17:40:04",40999,4,3008743,"5f3c23cbcee6b3a3c4faff76","Firefox 85.0","encoding_b8",2,"SS5",36,541,3,1,1,0,"motor_trial","SS5",8,3,"pred","grocery store.png","pomegranate.png",3,3
"09/02/2021 22:40:07","09/02/2021 17:40:07",40999,4,3008743,"5f3c23cbcee6b3a3c4faff76","Firefox 85.0","encoding_b8",2,"SS5",38,359,4,1,1,0,"motor_trial","SS5",8,3,"pred","grocery store.png","potatochips.png",4,4
"09/02/2021 22:40:10","09/02/2021 17:40:11",40999,4,3008743,"5f3c23cbcee6b3a3c4faff76","Firefox 85.0","encoding_b8",2,"SS5",40,395,2,1,1,0,"motor_trial","SS5",8,3,"pred","grocery store.png","oliveoil.png",5,2
"09/02/2021 22:40:14","09/02/2021 17:40:15",40999,4,3008743,"5f3c23cbcee6b3a3c4faff76","Firefox 85.0","encoding_b8",2,"SS5",42,687,3,1,1,0,"motor_trial","SS5",8,3,"pred","grocery store.png","honeycomb.png",6,3
"09/02/2021 22:40:22","09/02/2021 17:40:23",40999,4,3008743,"5f3c23cbcee6b3a3c4faff76","Firefox 85.0","encoding_b8",2,"SS5",46,405,1,1,1,0,"motor_trial","SS5",8,4,"pred","grocery store.png","celery.png",1,1
"09/02/2021 22:40:26","09/02/2021 17:40:27",40999,4,3008743,"5f3c23cbcee6b3a3c4faff76","Firefox 85.0","encoding_b8",2,"SS5",48,398,4,1,1,0,"motor_trial","SS5",8,4,"pred","grocery store.png","pie.png",2,4
"09/02/2021 22:40:30","09/02/2021 17:40:31",40999,4,3008743,"5f3c23cbcee6b3a3c4faff76","Firefox 85.0","encoding_b8",2,"SS5",50,586,3,1,1,0,"motor_trial","SS5",8,4,"pred","grocery store.png","cupcake.png",3,3
"09/02/2021 22:40:34","09/02/2021 17:40:34",40999,4,3008743,"5f3c23cbcee6b3a3c4faff76","Firefox 85.0","encoding_b8",2,"SS5",52,400,4,1,1,0,"motor_trial","SS5",8,4,"pred","grocery store.png","hotdog.png",4,4
"09/02/2021 22:40:37","09/02/2021 17:40:38",40999,4,3008743,"5f3c23cbcee6b3a3c4faff76","Firefox 85.0","encoding_b8",2,"SS5",54,351,2,1,1,0,"motor_trial","SS5",8,4,"pred","grocery store.png","starfruit.png",5,2
"09/02/2021 22:40:41","09/02/2021 17:40:42",40999,4,3008743,"5f3c23cbcee6b3a3c4faff76","Firefox 85.0","encoding_b8",2,"SS5",56,637,3,1,1,0,"motor_trial","SS5",8,4,"pred","grocery store.png","raspberries.png",6,3
"09/02/2021 22:10:42","09/02/2021 17:10:40",40999,4,3008809,"5ec771e68288e91bf1919096","Firefox 85.0","encoding_b1",3,"SS3",4,634,3,1,1,0,"motor_trial","SS3",1,1,"pred","grocery store.png","cantaloupe.png",1,3
"09/02/2021 22:10:46","09/02/2021 17:10:44",40999,4,3008809,"5ec771e68288e91bf1919096","Firefox 85.0","encoding_b1",3,"SS3",6,705,2,1,1,0,"motor_trial","SS3",1,1,"pred","grocery store.png","pineapple.png",2,2
"09/02/2021 22:10:50","09/02/2021 17:10:48",40999,4,3008809,"5ec771e68288e91bf1919096","Firefox 85.0","encoding_b1",3,"SS3",8,604,4,1,1,0,"motor_trial","SS3",1,1,"pred","grocery store.png","artichoke.png",3,4
"09/02/2021 22:10:54","09/02/2021 17:10:52",40999,4,3008809,"5ec771e68288e91bf1919096","Firefox 85.0","encoding_b1",3,"SS3",10,714,2,1,1,0,"motor_trial","SS3",1,1,"pred","grocery store.png","cookies.png",4,2
"09/02/2021 22:10:58","09/02/2021 17:10:56",40999,4,3008809,"5ec771e68288e91bf1919096","Firefox 85.0","encoding_b1",3,"SS3",12,588,1,1,1,0,"motor_trial","SS3",1,1,"pred","grocery store.png","bagel.png",5,1
"09/02/2021 22:11:01","09/02/2021 17:10:59",40999,4,3008809,"5ec771e68288e91bf1919096","Firefox 85.0","encoding_b1",3,"SS3",14,392,4,1,1,0,"motor_trial","SS3",1,1,"pred","grocery store.png","sandwich.png",6,4
"09/02/2021 22:11:10","09/02/2021 17:11:08",40999,4,3008809,"5ec771e68288e91bf1919096","Firefox 85.0","encoding_b1",3,"SS3",18,1101,2,1,1,0,"motor_trial","SS3",1,2,"rand","pet store.png","cat.png",1,2
"09/02/2021 22:11:14","09/02/2021 17:11:12",40999,4,3008809,"5ec771e68288e91bf1919096","Firefox 85.0","encoding_b1",3,"SS3",20,420,4,1,1,0,"motor_trial","SS3",1,2,"rand","pet store.png","polarbear.png",2,4
"09/02/2021 22:11:18","09/02/2021 17:11:16",40999,4,3008809,"5ec771e68288e91bf1919096","Firefox 85.0","encoding_b1",3,"SS3",22,754,1,1,1,0,"motor_trial","SS3",1,2,"rand","pet store.png","squirrel.png",3,1
"09/02/2021 22:11:22","09/02/2021 17:11:20",40999,4,3008809,"5ec771e68288e91bf1919096","Firefox 85.0","encoding_b1",3,"SS3",24,589,3,1,1,0,"motor_trial","SS3",1,2,"rand","pet store.png","dragonfly.png",4,3
"09/02/2021 22:11:25","09/02/2021 17:11:23",40999,4,3008809,"5ec771e68288e91bf1919096","Firefox 85.0","encoding_b1",3,"SS3",26,513,1,1,1,0,"motor_trial","SS3",1,2,"rand","pet store.png","deer.png",5,1
"09/02/2021 22:11:29","09/02/2021 17:11:27",40999,4,3008809,"5ec771e68288e91bf1919096","Firefox 85.0","encoding_b1",3,"SS3",28,660,4,1,1,0,"motor_trial","SS3",1,2,"rand","pet store.png","elephant.png",6,4
"09/02/2021 22:11:37","09/02/2021 17:11:36",40999,4,3008809,"5ec771e68288e91bf1919096","Firefox 85.0","encoding_b1",3,"SS3",32,634,3,1,1,0,"motor_trial","SS3",1,3,"pred","grocery store.png","rice.png",1,3
"09/02/2021 22:11:41","09/02/2021 17:11:39",40999,4,3008809,"5ec771e68288e91bf1919096","Firefox 85.0","encoding_b1",3,"SS3",34,444,2,1,1,0,"motor_trial","SS3",1,3,"pred","grocery store.png","coconut.png",2,2
"09/02/2021 22:11:45","09/02/2021 17:11:43",40999,4,3008809,"5ec771e68288e91bf1919096","Firefox 85.0","encoding_b1",3,"SS3",36,432,4,1,1,0,"motor_trial","SS3",1,3,"pred","grocery store.png","granola.png",3,4
"09/02/2021 22:11:49","09/02/2021 17:11:47",40999,4,3008809,"5ec771e68288e91bf1919096","Firefox 85.0","encoding_b1",3,"SS3",38,711,2,1,1,0,"motor_trial","SS3",1,3,"pred","grocery store.png","burrito.png",4,2
"09/02/2021 22:11:53","09/02/2021 17:11:51",40999,4,3008809,"5ec771e68288e91bf1919096","Firefox 85.0","encoding_b1",3,"SS3",40,1034,1,1,1,0,"motor_trial","SS3",1,3,"pred","grocery store.png","pancakes.png",5,1
"09/02/2021 22:11:57","09/02/2021 17:11:55",40999,4,3008809,"5ec771e68288e91bf1919096","Firefox 85.0","encoding_b1",3,"SS3",42,339,4,1,1,0,"motor_trial","SS3",1,3,"pred","grocery store.png","cupnoodle.png",6,4
"09/02/2021 22:12:05","09/02/2021 17:12:03",40999,4,3008809,"5ec771e68288e91bf1919096","Firefox 85.0","encoding_b1",3,"SS3",46,593,2,1,1,0,"motor_trial","SS3",1,4,"rand","pet store.png","snail.png",1,2
"09/02/2021 22:12:09","09/02/2021 17:12:07",40999,4,3008809,"5ec771e68288e91bf1919096","Firefox 85.0","encoding_b1",3,"SS3",48,486,3,1,1,0,"motor_trial","SS3",1,4,"rand","pet store.png","hummingbird.png",2,3
"09/02/2021 22:12:13","09/02/2021 17:12:11",40999,4,3008809,"5ec771e68288e91bf1919096","Firefox 85.0","encoding_b1",3,"SS3",50,504,1,1,1,0,"motor_trial","SS3",1,4,"rand","pet store.png","panda.png",3,1
"09/02/2021 22:12:16","09/02/2021 17:12:14",40999,4,3008809,"5ec771e68288e91bf1919096","Firefox 85.0","encoding_b1",3,"SS3",52,485,3,1,1,0,"motor_trial","SS3",1,4,"rand","pet store.png","stingray.png",4,3
"09/02/2021 22:12:20","09/02/2021 17:12:18",40999,4,3008809,"5ec771e68288e91bf1919096","Firefox 85.0","encoding_b1",3,"SS3",54,299,4,1,1,0,"motor_trial","SS3",1,4,"rand","pet store.png","sheep.png",5,4
"09/02/2021 22:12:24","09/02/2021 17:12:22",40999,4,3008809,"5ec771e68288e91bf1919096","Firefox 85.0","encoding_b1",3,"SS3",56,498,1,1,1,0,"motor_trial","SS3",1,4,"rand","pet store.png","crab.png",6,1
"09/02/2021 22:14:57","09/02/2021 17:14:55",40999,4,3008809,"5ec771e68288e91bf1919096","Firefox 85.0","encoding_b2",4,"SS3",4,828,2,1,1,0,"motor_trial","SS3",2,1,"rand","pet store.png","killerwhale.png",1,2
"09/02/2021 22:15:01","09/02/2021 17:14:59",40999,4,3008809,"5ec771e68288e91bf1919096","Firefox 85.0","encoding_b2",4,"SS3",6,597,1,1,1,0,"motor_trial","SS3",2,1,"rand","pet store.png","bison.png",2,1
"09/02/2021 22:15:05","09/02/2021 17:15:03",40999,4,3008809,"5ec771e68288e91bf1919096","Firefox 85.0","encoding_b2",4,"SS3",8,934,4,1,1,0,"motor_trial","SS3",2,1,"rand","pet store.png","walrus.png",3,4
"09/02/2021 22:15:09","09/02/2021 17:15:07",40999,4,3008809,"5ec771e68288e91bf1919096","Firefox 85.0","encoding_b2",4,"SS3",10,938,3,1,1,0,"motor_trial","SS3",2,1,"rand","pet store.png","horse.png",4,3
"09/02/2021 22:15:13","09/02/2021 17:15:11",40999,4,3008809,"5ec771e68288e91bf1919096","Firefox 85.0","encoding_b2",4,"SS3",12,623,1,1,1,0,"motor_trial","SS3",2,1,"rand","pet store.png","hedgehog.png",5,1
"09/02/2021 22:15:17","09/02/2021 17:15:15",40999,4,3008809,"5ec771e68288e91bf1919096","Firefox 85.0","encoding_b2",4,"SS3",14,451,3,1,1,0,"motor_trial","SS3",2,1,"rand","pet store.png","ostrich.png",6,3
"09/02/2021 22:15:25","09/02/2021 17:15:23",40999,4,3008809,"5ec771e68288e91bf1919096","Firefox 85.0","encoding_b2",4,"SS3",18,1154,3,1,1,0,"motor_trial","SS3",2,2,"pred","grocery store.png","peanutbutter.png",1,3
"09/02/2021 22:15:29","09/02/2021 17:15:27",40999,4,3008809,"5ec771e68288e91bf1919096","Firefox 85.0","encoding_b2",4,"SS3",20,287,2,1,1,0,"motor_trial","SS3",2,2,"pred","grocery store.png","tomato.png",2,2
"09/02/2021 22:15:32","09/02/2021 17:15:31",40999,4,3008809,"5ec771e68288e91bf1919096","Firefox 85.0","encoding_b2",4,"SS3",22,309,4,1,1,0,"motor_trial","SS3",2,2,"pred","grocery store.png","kiwi.png",3,4
"09/02/2021 22:15:36","09/02/2021 17:15:34",40999,4,3008809,"5ec771e68288e91bf1919096","Firefox 85.0","encoding_b2",4,"SS3",24,474,2,1,1,0,"motor_trial","SS3",2,2,"pred","grocery store.png","coffee.png",4,2
"09/02/2021 22:15:40","09/02/2021 17:15:38",40999,4,3008809,"5ec771e68288e91bf1919096","Firefox 85.0","encoding_b2",4,"SS3",26,352,1,1,1,0,"motor_trial","SS3",2,2,"pred","grocery store.png","basil.png",5,1
"09/02/2021 22:15:43","09/02/2021 17:15:42",40999,4,3008809,"5ec771e68288e91bf1919096","Firefox 85.0","encoding_b2",4,"SS3",28,222,4,1,1,0,"motor_trial","SS3",2,2,"pred","grocery store.png","fortunecookie.png",6,4
"09/02/2021 22:15:52","09/02/2021 17:15:50",40999,4,3008809,"5ec771e68288e91bf1919096","Firefox 85.0","encoding_b2",4,"SS3",32,619,2,1,1,0,"motor_trial","SS3",2,3,"rand","pet store.png","wolf.png",1,2
"09/02/2021 22:15:55","09/02/2021 17:15:54",40999,4,3008809,"5ec771e68288e91bf1919096","Firefox 85.0","encoding_b2",4,"SS3",34,562,1,1,1,0,"motor_trial","SS3",2,3,"rand","pet store.png","ferret.png",2,1
"09/02/2021 22:15:59","09/02/2021 17:15:57",40999,4,3008809,"5ec771e68288e91bf1919096","Firefox 85.0","encoding_b2",4,"SS3",36,296,3,1,1,0,"motor_trial","SS3",2,3,"rand","pet store.png","rhino.png",3,3
"09/02/2021 22:16:03","09/02/2021 17:16:01",40999,4,3008809,"5ec771e68288e91bf1919096","Firefox 85.0","encoding_b2",4,"SS3",38,505,4,1,1,0,"motor_trial","SS3",2,3,"rand","pet store.png","beetle.png",4,4
"09/02/2021 22:16:07","09/02/2021 17:16:05",40999,4,3008809,"5ec771e68288e91bf1919096","Firefox 85.0","encoding_b2",4,"SS3",40,498,1,1,1,0,"motor_trial","SS3",2,3,"rand","pet store.png","chicken.png",5,1
"09/02/2021 22:16:10","09/02/2021 17:16:08",40999,4,3008809,"5ec771e68288e91bf1919096","Firefox 85.0","encoding_b2",4,"SS3",42,355,4,1,1,0,"motor_trial","SS3",2,3,"rand","pet store.png","pufferfish.png",6,4
"09/02/2021 22:16:19","09/02/2021 17:16:17",40999,4,3008809,"5ec771e68288e91bf1919096","Firefox 85.0","encoding_b2",4,"SS3",46,1423,3,1,1,0,"motor_trial","SS3",2,4,"pred","grocery store.png","orange.png",1,3
"09/02/2021 22:16:23","09/02/2021 17:16:21",40999,4,3008809,"5ec771e68288e91bf1919096","Firefox 85.0","encoding_b2",4,"SS3",48,409,2,1,1,0,"motor_trial","SS3",2,4,"pred","grocery store.png","honeycomb.png",2,2
"09/02/2021 22:16:27","09/02/2021 17:16:25",40999,4,3008809,"5ec771e68288e91bf1919096","Firefox 85.0","encoding_b2",4,"SS3",50,415,4,1,1,0,"motor_trial","SS3",2,4,"pred","grocery store.png","ramen.png",3,4
"09/02/2021 22:16:30","09/02/2021 17:16:28",40999,4,3008809,"5ec771e68288e91bf1919096","Firefox 85.0","encoding_b2",4,"SS3",52,390,2,1,1,0,"motor_trial","SS3",2,4,"pred","grocery store.png","icecreamsandwich.png",4,2
"09/02/2021 22:16:34","09/02/2021 17:16:32",40999,4,3008809,"5ec771e68288e91bf1919096","Firefox 85.0","encoding_b2",4,"SS3",54,623,1,1,1,0,"motor_trial","SS3",2,4,"pred","grocery store.png","potatochips.png",5,1
"09/02/2021 22:16:38","09/02/2021 17:16:36",40999,4,3008809,"5ec771e68288e91bf1919096","Firefox 85.0","encoding_b2",4,"SS3",56,411,4,1,1,0,"motor_trial","SS3",2,4,"pred","grocery store.png","avocado.png",6,4
"09/02/2021 22:18:43","09/02/2021 17:18:41",40999,4,3008809,"5ec771e68288e91bf1919096","Firefox 85.0","encoding_b3",2,"SS3",4,577,3,1,1,0,"motor_trial","SS3",3,1,"pred","grocery store.png","mustard.png",1,3
"09/02/2021 22:18:47","09/02/2021 17:18:45",40999,4,3008809,"5ec771e68288e91bf1919096","Firefox 85.0","encoding_b3",2,"SS3",6,432,2,1,1,0,"motor_trial","SS3",3,1,"pred","grocery store.png","acaibowl.png",2,2
"09/02/2021 22:18:51","09/02/2021 17:18:49",40999,4,3008809,"5ec771e68288e91bf1919096","Firefox 85.0","encoding_b3",2,"SS3",8,447,4,1,1,0,"motor_trial","SS3",3,1,"pred","grocery store.png","clams.png",3,4
"09/02/2021 22:18:55","09/02/2021 17:18:53",40999,4,3008809,"5ec771e68288e91bf1919096","Firefox 85.0","encoding_b3",2,"SS3",10,525,2,1,1,0,"motor_trial","SS3",3,1,"pred","grocery store.png","egg.png",4,2
"09/02/2021 22:18:59","09/02/2021 17:18:57",40999,4,3008809,"5ec771e68288e91bf1919096","Firefox 85.0","encoding_b3",2,"SS3",12,511,1,1,1,0,"motor_trial","SS3",3,1,"pred","grocery store.png","soup.png",5,1
"09/02/2021 22:19:06","09/02/2021 17:19:00",40999,4,3008809,"5ec771e68288e91bf1919096","Firefox 85.0","encoding_b3",2,"SS3",14,395,4,1,1,0,"motor_trial","SS3",3,1,"pred","grocery store.png","muffin.png",6,4
"09/02/2021 22:19:10","09/02/2021 17:19:08",40999,4,3008809,"5ec771e68288e91bf1919096","Firefox 85.0","encoding_b3",2,"SS3",18,547,3,1,1,0,"motor_trial","SS3",3,2,"pred","grocery store.png","ravioli.png",1,3
"09/02/2021 22:19:14","09/02/2021 17:19:12",40999,4,3008809,"5ec771e68288e91bf1919096","Firefox 85.0","encoding_b3",2,"SS3",20,763,2,1,1,0,"motor_trial","SS3",3,2,"pred","grocery store.png","watermelon.png",2,2
"09/02/2021 22:19:18","09/02/2021 17:19:16",40999,4,3008809,"5ec771e68288e91bf1919096","Firefox 85.0","encoding_b3",2,"SS3",22,319,4,1,1,0,"motor_trial","SS3",3,2,"pred","grocery store.png","guava.png",3,4
"09/02/2021 22:19:22","09/02/2021 17:19:20",40999,4,3008809,"5ec771e68288e91bf1919096","Firefox 85.0","encoding_b3",2,"SS3",24,365,2,1,1,0,"motor_trial","SS3",3,2,"pred","grocery store.png","peaches.png",4,2
"09/02/2021 22:19:26","09/02/2021 17:19:24",40999,4,3008809,"5ec771e68288e91bf1919096","Firefox 85.0","encoding_b3",2,"SS3",26,624,1,1,1,0,"motor_trial","SS3",3,2,"pred","grocery store.png","butter.png",5,1
"09/02/2021 22:19:29","09/02/2021 17:19:27",40999,4,3008809,"5ec771e68288e91bf1919096","Firefox 85.0","encoding_b3",2,"SS3",28,362,4,1,1,0,"motor_trial","SS3",3,2,"pred","grocery store.png","broccoli.png",6,4
"09/02/2021 22:19:37","09/02/2021 17:19:35",40999,4,3008809,"5ec771e68288e91bf1919096","Firefox 85.0","encoding_b3",2,"SS3",32,624,2,1,1,0,"motor_trial","SS3",3,3,"rand","pet store.png","dolphin.png",1,2
"09/02/2021 22:19:41","09/02/2021 17:19:39",40999,4,3008809,"5ec771e68288e91bf1919096","Firefox 85.0","encoding_b3",2,"SS3",34,558,3,1,1,0,"motor_trial","SS3",3,3,"rand","pet store.png","camel.png",2,3
"09/02/2021 22:19:45","09/02/2021 17:19:43",40999,4,3008809,"5ec771e68288e91bf1919096","Firefox 85.0","encoding_b3",2,"SS3",36,386,1,1,1,0,"motor_trial","SS3",3,3,"rand","pet store.png","ladybug.png",3,1
"09/02/2021 22:19:49","09/02/2021 17:19:47",40999,4,3008809,"5ec771e68288e91bf1919096","Firefox 85.0","encoding_b3",2,"SS3",38,469,4,1,1,0,"motor_trial","SS3",3,3,"rand","pet store.png","lemur.png",4,4
"09/02/2021 22:19:52","09/02/2021 17:19:50",40999,4,3008809,"5ec771e68288e91bf1919096","Firefox 85.0","encoding_b3",2,"SS3",40,414,1,1,1,0,"motor_trial","SS3",3,3,"rand","pet store.png","koala.png",5,1
"09/02/2021 22:19:56","09/02/2021 17:19:54",40999,4,3008809,"5ec771e68288e91bf1919096","Firefox 85.0","encoding_b3",2,"SS3",42,411,3,1,1,0,"motor_trial","SS3",3,3,"rand","pet store.png","flamingo.png",6,3
"09/02/2021 22:20:04","09/02/2021 17:20:02",40999,4,3008809,"5ec771e68288e91bf1919096","Firefox 85.0","encoding_b3",2,"SS3",46,564,4,1,1,0,"motor_trial","SS3",3,4,"rand","pet store.png","whale.png",1,4
"09/02/2021 22:20:08","09/02/2021 17:20:06",40999,4,3008809,"5ec771e68288e91bf1919096","Firefox 85.0","encoding_b3",2,"SS3",48,608,2,1,1,0,"motor_trial","SS3",3,4,"rand","pet store.png","canadiangoose.png",2,2
"09/02/2021 22:20:12","09/02/2021 17:20:10",40999,4,3008809,"5ec771e68288e91bf1919096","Firefox 85.0","encoding_b3",2,"SS3",50,501,1,1,1,0,"motor_trial","SS3",3,4,"rand","pet store.png","hammerheadshark.png",3,1
"09/02/2021 22:20:16","09/02/2021 17:20:14",40999,4,3008809,"5ec771e68288e91bf1919096","Firefox 85.0","encoding_b3",2,"SS3",52,347,3,1,1,0,"motor_trial","SS3",3,4,"rand","pet store.png","redpanda.png",4,3
"09/02/2021 22:20:19","09/02/2021 17:20:17",40999,4,3008809,"5ec771e68288e91bf1919096","Firefox 85.0","encoding_b3",2,"SS3",54,434,2,1,1,0,"motor_trial","SS3",3,4,"rand","pet store.png","boar.png",5,2
"09/02/2021 22:20:23","09/02/2021 17:20:21",40999,4,3008809,"5ec771e68288e91bf1919096","Firefox 85.0","encoding_b3",2,"SS3",56,377,3,1,1,0,"motor_trial","SS3",3,4,"rand","pet store.png","snake.png",6,3
"09/02/2021 22:22:38","09/02/2021 17:22:36",40999,4,3008809,"5ec771e68288e91bf1919096","Firefox 85.0","encoding_b4",2,"SS3",4,667,3,1,1,0,"motor_trial","SS3",4,1,"pred","grocery store.png","popcornshrimp.png",1,3
"09/02/2021 22:22:42","09/02/2021 17:22:40",40999,4,3008809,"5ec771e68288e91bf1919096","Firefox 85.0","encoding_b4",2,"SS3",6,406,2,1,1,0,"motor_trial","SS3",4,1,"pred","grocery store.png","cheese.png",2,2
"09/02/2021 22:22:46","09/02/2021 17:22:44",40999,4,3008809,"5ec771e68288e91bf1919096","Firefox 85.0","encoding_b4",2,"SS3",8,436,4,1,1,0,"motor_trial","SS3",4,1,"pred","grocery store.png","walnuts.png",3,4
"09/02/2021 22:22:49","09/02/2021 17:22:48",40999,4,3008809,"5ec771e68288e91bf1919096","Firefox 85.0","encoding_b4",2,"SS3",10,412,2,1,1,0,"motor_trial","SS3",4,1,"pred","grocery store.png","donut.png",4,2
"09/02/2021 22:22:54","09/02/2021 17:22:52",40999,4,3008809,"5ec771e68288e91bf1919096","Firefox 85.0","encoding_b4",2,"SS3",12,701,1,1,1,0,"motor_trial","SS3",4,1,"pred","grocery store.png","waffle.png",5,1
"09/02/2021 22:22:57","09/02/2021 17:22:55",40999,4,3008809,"5ec771e68288e91bf1919096","Firefox 85.0","encoding_b4",2,"SS3",14,533,4,1,1,0,"motor_trial","SS3",4,1,"pred","grocery store.png","lychee.png",6,4
"09/02/2021 22:23:06","09/02/2021 17:23:04",40999,4,3008809,"5ec771e68288e91bf1919096","Firefox 85.0","encoding_b4",2,"SS3",18,714,4,1,1,0,"motor_trial","SS3",4,2,"rand","pet store.png","vulture.png",1,4
"09/02/2021 22:23:10","09/02/2021 17:23:08",40999,4,3008809,"5ec771e68288e91bf1919096","Firefox 85.0","encoding_b4",2,"SS3",20,909,2,1,1,0,"motor_trial","SS3",4,2,"rand","pet store.png","armadillo.png",2,2
"09/02/2021 22:23:13","09/02/2021 17:23:12",40999,4,3008809,"5ec771e68288e91bf1919096","Firefox 85.0","encoding_b4",2,"SS3",22,437,3,1,1,0,"motor_trial","SS3",4,2,"rand","pet store.png","caterpillar.png",3,3
"09/02/2021 22:23:17","09/02/2021 17:23:15",40999,4,3008809,"5ec771e68288e91bf1919096","Firefox 85.0","encoding_b4",2,"SS3",24,448,1,1,1,0,"motor_trial","SS3",4,2,"rand","pet store.png","butterfly.png",4,1
"09/02/2021 22:23:21","09/02/2021 17:23:19",40999,4,3008809,"5ec771e68288e91bf1919096","Firefox 85.0","encoding_b4",2,"SS3",26,517,3,1,1,0,"motor_trial","SS3",4,2,"rand","pet store.png","octopus.png",5,3
"09/02/2021 22:23:27","09/02/2021 17:23:23",40999,4,3008809,"5ec771e68288e91bf1919096","Firefox 85.0","encoding_b4",2,"SS3",28,414,2,1,1,0,"motor_trial","SS3",4,2,"rand","pet store.png","iguana.png",6,2
"09/02/2021 22:23:34","09/02/2021 17:23:31",40999,4,3008809,"5ec771e68288e91bf1919096","Firefox 85.0","encoding_b4",2,"SS3",32,1055,3,1,1,0,"motor_trial","SS3",4,3,"pred","grocery store.png","oliveoil.png",1,3
"09/02/2021 22:23:37","09/02/2021 17:23:35",40999,4,3008809,"5ec771e68288e91bf1919096","Firefox 85.0","encoding_b4",2,"SS3",34,375,2,1,1,0,"motor_trial","SS3",4,3,"pred","grocery store.png","croissant.png",2,2
"09/02/2021 22:23:41","09/02/2021 17:23:39",40999,4,3008809,"5ec771e68288e91bf1919096","Firefox 85.0","encoding_b4",2,"SS3",36,373,4,1,1,0,"motor_trial","SS3",4,3,"pred","grocery store.png","hotdog.png",3,4
"09/02/2021 22:23:44","09/02/2021 17:23:42",40999,4,3008809,"5ec771e68288e91bf1919096","Firefox 85.0","encoding_b4",2,"SS3",38,355,2,1,1,0,"motor_trial","SS3",4,3,"pred","grocery store.png","dragonfruit.png",4,2
"09/02/2021 22:23:48","09/02/2021 17:23:46",40999,4,3008809,"5ec771e68288e91bf1919096","Firefox 85.0","encoding_b4",2,"SS3",40,484,1,1,1,0,"motor_trial","SS3",4,3,"pred","grocery store.png","carrots.png",5,1
"09/02/2021 22:23:52","09/02/2021 17:23:50",40999,4,3008809,"5ec771e68288e91bf1919096","Firefox 85.0","encoding_b4",2,"SS3",42,333,4,1,1,0,"motor_trial","SS3",4,3,"pred","grocery store.png","starfruit.png",6,4
"09/02/2021 22:24:00","09/02/2021 17:23:58",40999,4,3008809,"5ec771e68288e91bf1919096","Firefox 85.0","encoding_b4",2,"SS3",46,559,2,1,1,0,"motor_trial","SS3",4,4,"rand","pet store.png","fox.png",1,2
"09/02/2021 22:24:04","09/02/2021 17:24:02",40999,4,3008809,"5ec771e68288e91bf1919096","Firefox 85.0","encoding_b4",2,"SS3",48,931,1,1,1,0,"motor_trial","SS3",4,4,"rand","pet store.png","hippo.png",2,1
"09/02/2021 22:24:08","09/02/2021 17:24:06",40999,4,3008809,"5ec771e68288e91bf1919096","Firefox 85.0","encoding_b4",2,"SS3",50,357,3,1,1,0,"motor_trial","SS3",4,4,"rand","pet store.png","shark.png",3,3
"09/02/2021 22:24:11","09/02/2021 17:24:09",40999,4,3008809,"5ec771e68288e91bf1919096","Firefox 85.0","encoding_b4",2,"SS3",52,301,4,1,1,0,"motor_trial","SS3",4,4,"rand","pet store.png","pig.png",4,4
"09/02/2021 22:24:15","09/02/2021 17:24:13",40999,4,3008809,"5ec771e68288e91bf1919096","Firefox 85.0","encoding_b4",2,"SS3",54,490,3,1,1,0,"motor_trial","SS3",4,4,"rand","pet store.png","seahorse.png",5,3
"09/02/2021 22:24:19","09/02/2021 17:24:17",40999,4,3008809,"5ec771e68288e91bf1919096","Firefox 85.0","encoding_b4",2,"SS3",56,442,1,1,1,0,"motor_trial","SS3",4,4,"rand","pet store.png","cow.png",6,1
"09/02/2021 22:26:30","09/02/2021 17:26:28",40999,4,3008809,"5ec771e68288e91bf1919096","Firefox 85.0","encoding_b5",2,"SS3",4,638,2,1,1,0,"motor_trial","SS3",5,1,"rand","pet store.png","bat.png",1,2
"09/02/2021 22:26:34","09/02/2021 17:26:32",40999,4,3008809,"5ec771e68288e91bf1919096","Firefox 85.0","encoding_b5",2,"SS3",6,523,3,1,1,0,"motor_trial","SS3",5,1,"rand","pet store.png","cheetah.png",2,3
"09/02/2021 22:26:38","09/02/2021 17:26:36",40999,4,3008809,"5ec771e68288e91bf1919096","Firefox 85.0","encoding_b5",2,"SS3",8,515,1,1,1,0,"motor_trial","SS3",5,1,"rand","pet store.png","chameleon.png",3,1
"09/02/2021 22:26:43","09/02/2021 17:26:42",40999,4,3008809,"5ec771e68288e91bf1919096","Firefox 85.0","encoding_b5",2,"SS3",10,2168,4,1,1,0,"motor_trial","SS3",5,1,"rand","pet store.png","frog.png",4,4
"09/02/2021 22:26:48","09/02/2021 17:26:46",40999,4,3008809,"5ec771e68288e91bf1919096","Firefox 85.0","encoding_b5",2,"SS3",12,908,3,1,1,0,"motor_trial","SS3",5,1,"rand","pet store.png","parrot.png",5,3
"09/02/2021 22:26:52","09/02/2021 17:26:50",40999,4,3008809,"5ec771e68288e91bf1919096","Firefox 85.0","encoding_b5",2,"SS3",14,545,4,1,1,0,"motor_trial","SS3",5,1,"rand","pet store.png","pug.png",6,4
"09/02/2021 22:27:00","09/02/2021 17:26:58",40999,4,3008809,"5ec771e68288e91bf1919096","Firefox 85.0","encoding_b5",2,"SS3",18,629,2,1,1,0,"motor_trial","SS3",5,2,"rand","pet store.png","pelican.png",1,2
"09/02/2021 22:27:04","09/02/2021 17:27:02",40999,4,3008809,"5ec771e68288e91bf1919096","Firefox 85.0","encoding_b5",2,"SS3",20,990,1,1,1,0,"motor_trial","SS3",5,2,"rand","pet store.png","cuttlefish.png",2,1
"09/02/2021 22:27:08","09/02/2021 17:27:06",40999,4,3008809,"5ec771e68288e91bf1919096","Firefox 85.0","encoding_b5",2,"SS3",22,375,4,1,1,0,"motor_trial","SS3",5,2,"rand","pet store.png","cardinal.png",3,4
"09/02/2021 22:27:11","09/02/2021 17:27:10",40999,4,3008809,"5ec771e68288e91bf1919096","Firefox 85.0","encoding_b5",2,"SS3",24,577,3,1,1,0,"motor_trial","SS3",5,2,"rand","pet store.png","crow.png",4,3
"09/02/2021 22:27:15","09/02/2021 17:27:13",40999,4,3008809,"5ec771e68288e91bf1919096","Firefox 85.0","encoding_b5",2,"SS3",26,404,4,1,1,0,"motor_trial","SS3",5,2,"rand","pet store.png","goat.png",5,4
"09/02/2021 22:27:19","09/02/2021 17:27:17",40999,4,3008809,"5ec771e68288e91bf1919096","Firefox 85.0","encoding_b5",2,"SS3",28,589,1,1,1,0,"motor_trial","SS3",5,2,"rand","pet store.png","crocodile.png",6,1
"09/02/2021 22:27:27","09/02/2021 17:27:25",40999,4,3008809,"5ec771e68288e91bf1919096","Firefox 85.0","encoding_b5",2,"SS3",32,586,3,1,1,0,"motor_trial","SS3",5,3,"pred","grocery store.png","strawberries.png",1,3
"09/02/2021 22:27:31","09/02/2021 17:27:29",40999,4,3008809,"5ec771e68288e91bf1919096","Firefox 85.0","encoding_b5",2,"SS3",34,381,2,1,1,0,"motor_trial","SS3",5,3,"pred","grocery store.png","brusselsprouts.png",2,2
"09/02/2021 22:27:34","09/02/2021 17:27:33",40999,4,3008809,"5ec771e68288e91bf1919096","Firefox 85.0","encoding_b5",2,"SS3",36,347,4,1,1,0,"motor_trial","SS3",5,3,"pred","grocery store.png","lemon.png",3,4
"09/02/2021 22:27:38","09/02/2021 17:27:36",40999,4,3008809,"5ec771e68288e91bf1919096","Firefox 85.0","encoding_b5",2,"SS3",38,473,2,1,1,0,"motor_trial","SS3",5,3,"pred","grocery store.png","acornsquash.png",4,2
"09/02/2021 22:27:42","09/02/2021 17:27:40",40999,4,3008809,"5ec771e68288e91bf1919096","Firefox 85.0","encoding_b5",2,"SS3",40,317,1,1,1,0,"motor_trial","SS3",5,3,"pred","grocery store.png","celery.png",5,1
"09/02/2021 22:27:46","09/02/2021 17:27:44",40999,4,3008809,"5ec771e68288e91bf1919096","Firefox 85.0","encoding_b5",2,"SS3",42,459,4,1,1,0,"motor_trial","SS3",5,3,"pred","grocery store.png","seaweed.png",6,4
"09/02/2021 22:27:54","09/02/2021 17:27:52",40999,4,3008809,"5ec771e68288e91bf1919096","Firefox 85.0","encoding_b5",2,"SS3",46,786,3,1,1,0,"motor_trial","SS3",5,4,"pred","grocery store.png","cabbage.png",1,3
"09/02/2021 22:27:58","09/02/2021 17:27:56",40999,4,3008809,"5ec771e68288e91bf1919096","Firefox 85.0","encoding_b5",2,"SS3",48,341,2,1,1,0,"motor_trial","SS3",5,4,"pred","grocery store.png","cereal.png",2,2
"09/02/2021 22:28:01","09/02/2021 17:27:59",40999,4,3008809,"5ec771e68288e91bf1919096","Firefox 85.0","encoding_b5",2,"SS3",50,382,4,1,1,0,"motor_trial","SS3",5,4,"pred","grocery store.png","apple.png",3,4
"09/02/2021 22:28:05","09/02/2021 17:28:03",40999,4,3008809,"5ec771e68288e91bf1919096","Firefox 85.0","encoding_b5",2,"SS3",52,405,2,1,1,0,"motor_trial","SS3",5,4,"pred","grocery store.png","taco.png",4,2
"09/02/2021 22:28:09","09/02/2021 17:28:07",40999,4,3008809,"5ec771e68288e91bf1919096","Firefox 85.0","encoding_b5",2,"SS3",54,582,1,1,1,0,"motor_trial","SS3",5,4,"pred","grocery store.png","corn.png",5,1
"09/02/2021 22:28:12","09/02/2021 17:28:11",40999,4,3008809,"5ec771e68288e91bf1919096","Firefox 85.0","encoding_b5",2,"SS3",56,347,4,1,1,0,"motor_trial","SS3",5,4,"pred","grocery store.png","nachos.png",6,4
"09/02/2021 22:30:26","09/02/2021 17:30:24",40999,4,3008809,"5ec771e68288e91bf1919096","Firefox 85.0","encoding_b6",2,"SS3",4,737,2,1,1,0,"motor_trial","SS3",6,1,"rand","pet store.png","moose.png",1,2
"09/02/2021 22:30:30","09/02/2021 17:30:28",40999,4,3008809,"5ec771e68288e91bf1919096","Firefox 85.0","encoding_b6",2,"SS3",6,433,4,1,1,0,"motor_trial","SS3",6,1,"rand","pet store.png","rat.png",2,4
"09/02/2021 22:30:34","09/02/2021 17:30:32",40999,4,3008809,"5ec771e68288e91bf1919096","Firefox 85.0","encoding_b6",2,"SS3",8,467,1,1,1,0,"motor_trial","SS3",6,1,"rand","pet store.png","turkey.png",3,1
"09/02/2021 22:30:37","09/02/2021 17:30:35",40999,4,3008809,"5ec771e68288e91bf1919096","Firefox 85.0","encoding_b6",2,"SS3",10,405,3,1,1,0,"motor_trial","SS3",6,1,"rand","pet store.png","giraffe.png",4,3
"09/02/2021 22:30:41","09/02/2021 17:30:39",40999,4,3008809,"5ec771e68288e91bf1919096","Firefox 85.0","encoding_b6",2,"SS3",12,366,4,1,1,0,"motor_trial","SS3",6,1,"rand","pet store.png","tortoise.png",5,4
"09/02/2021 22:30:45","09/02/2021 17:30:43",40999,4,3008809,"5ec771e68288e91bf1919096","Firefox 85.0","encoding_b6",2,"SS3",14,545,3,1,1,0,"motor_trial","SS3",6,1,"rand","pet store.png","chimp.png",6,3
"09/02/2021 22:30:53","09/02/2021 17:30:51",40999,4,3008809,"5ec771e68288e91bf1919096","Firefox 85.0","encoding_b6",2,"SS3",18,597,3,1,1,0,"motor_trial","SS3",6,2,"pred","grocery store.png","pie.png",1,3
"09/02/2021 22:30:57","09/02/2021 17:30:55",40999,4,3008809,"5ec771e68288e91bf1919096","Firefox 85.0","encoding_b6",2,"SS3",20,348,2,1,1,0,"motor_trial","SS3",6,2,"pred","grocery store.png","cinnamon.png",2,2
"09/02/2021 22:31:00","09/02/2021 17:30:58",40999,4,3008809,"5ec771e68288e91bf1919096","Firefox 85.0","encoding_b6",2,"SS3",22,346,4,1,1,0,"motor_trial","SS3",6,2,"pred","grocery store.png","chocolatemilk.png",3,4
"09/02/2021 22:31:04","09/02/2021 17:31:02",40999,4,3008809,"5ec771e68288e91bf1919096","Firefox 85.0","encoding_b6",2,"SS3",24,451,2,1,1,0,"motor_trial","SS3",6,2,"pred","grocery store.png","edamame.png",4,2
"09/02/2021 22:31:08","09/02/2021 17:31:06",40999,4,3008809,"5ec771e68288e91bf1919096","Firefox 85.0","encoding_b6",2,"SS3",26,366,1,1,1,0,"motor_trial","SS3",6,2,"pred","grocery store.png","cupcake.png",5,1
"09/02/2021 22:31:11","09/02/2021 17:31:09",40999,4,3008809,"5ec771e68288e91bf1919096","Firefox 85.0","encoding_b6",2,"SS3",28,425,4,1,1,0,"motor_trial","SS3",6,2,"pred","grocery store.png","raspberries.png",6,4
"09/02/2021 22:31:19","09/02/2021 17:31:18",40999,4,3008809,"5ec771e68288e91bf1919096","Firefox 85.0","encoding_b6",2,"SS3",32,531,2,1,1,0,"motor_trial","SS3",6,3,"rand","pet store.png","bettafish.png",1,2
"09/02/2021 22:31:23","09/02/2021 17:31:21",40999,4,3008809,"5ec771e68288e91bf1919096","Firefox 85.0","encoding_b6",2,"SS3",34,466,1,1,1,0,"motor_trial","SS3",6,3,"rand","pet store.png","surgeonfish.png",2,1
"09/02/2021 22:31:27","09/02/2021 17:31:25",40999,4,3008809,"5ec771e68288e91bf1919096","Firefox 85.0","encoding_b6",2,"SS3",36,373,3,1,1,0,"motor_trial","SS3",6,3,"rand","pet store.png","owl.png",3,3
"09/02/2021 22:31:31","09/02/2021 17:31:29",40999,4,3008809,"5ec771e68288e91bf1919096","Firefox 85.0","encoding_b6",2,"SS3",38,455,1,1,1,0,"motor_trial","SS3",6,3,"rand","pet store.png","lion.png",4,1
"09/02/2021 22:31:34","09/02/2021 17:31:32",40999,4,3008809,"5ec771e68288e91bf1919096","Firefox 85.0","encoding_b6",2,"SS3",40,336,4,1,1,0,"motor_trial","SS3",6,3,"rand","pet store.png","panther.png",5,4
"09/02/2021 22:31:38","09/02/2021 17:31:36",40999,4,3008809,"5ec771e68288e91bf1919096","Firefox 85.0","encoding_b6",2,"SS3",42,423,3,1,1,0,"motor_trial","SS3",6,3,"rand","pet store.png","gorilla.png",6,3
"09/02/2021 22:31:46","09/02/2021 17:31:44",40999,4,3008809,"5ec771e68288e91bf1919096","Firefox 85.0","encoding_b6",2,"SS3",46,581,3,1,1,0,"motor_trial","SS3",6,4,"pred","grocery store.png","onion.png",1,3
"09/02/2021 22:31:50","09/02/2021 17:31:48",40999,4,3008809,"5ec771e68288e91bf1919096","Firefox 85.0","encoding_b6",2,"SS3",48,401,2,1,1,0,"motor_trial","SS3",6,4,"pred","grocery store.png","bread.png",2,2
"09/02/2021 22:31:53","09/02/2021 17:31:51",40999,4,3008809,"5ec771e68288e91bf1919096","Firefox 85.0","encoding_b6",2,"SS3",50,270,4,1,1,0,"motor_trial","SS3",6,4,"pred","grocery store.png","blackpepper.png",3,4
"09/02/2021 22:31:57","09/02/2021 17:31:55",40999,4,3008809,"5ec771e68288e91bf1919096","Firefox 85.0","encoding_b6",2,"SS3",52,470,2,1,1,0,"motor_trial","SS3",6,4,"pred","grocery store.png","cake.png",4,2
"09/02/2021 22:32:01","09/02/2021 17:31:59",40999,4,3008809,"5ec771e68288e91bf1919096","Firefox 85.0","encoding_b6",2,"SS3",54,471,1,1,1,0,"motor_trial","SS3",6,4,"pred","grocery store.png","bacon.png",5,1
"09/02/2021 22:32:05","09/02/2021 17:32:03",40999,4,3008809,"5ec771e68288e91bf1919096","Firefox 85.0","encoding_b6",2,"SS3",56,381,4,1,1,0,"motor_trial","SS3",6,4,"pred","grocery store.png","caramelapple.png",6,4
"09/02/2021 22:34:01","09/02/2021 17:33:59",40999,4,3008809,"5ec771e68288e91bf1919096","Firefox 85.0","encoding_b7",2,"SS3",4,561,3,1,1,0,"motor_trial","SS3",7,1,"pred","grocery store.png","pizza.png",1,3
"09/02/2021 22:34:04","09/02/2021 17:34:02",40999,4,3008809,"5ec771e68288e91bf1919096","Firefox 85.0","encoding_b7",2,"SS3",6,369,2,1,1,0,"motor_trial","SS3",7,1,"pred","grocery store.png","chocolate.png",2,2
"09/02/2021 22:34:08","09/02/2021 17:34:06",40999,4,3008809,"5ec771e68288e91bf1919096","Firefox 85.0","encoding_b7",2,"SS3",8,392,4,1,1,0,"motor_trial","SS3",7,1,"pred","grocery store.png","bellpeppers.png",3,4
"09/02/2021 22:34:12","09/02/2021 17:34:10",40999,4,3008809,"5ec771e68288e91bf1919096","Firefox 85.0","encoding_b7",2,"SS3",10,383,2,1,1,0,"motor_trial","SS3",7,1,"pred","grocery store.png","popcorn.png",4,2
"09/02/2021 22:34:16","09/02/2021 17:34:14",40999,4,3008809,"5ec771e68288e91bf1919096","Firefox 85.0","encoding_b7",2,"SS3",12,597,1,1,1,0,"motor_trial","SS3",7,1,"pred","grocery store.png","dumplings.png",5,1
"09/02/2021 22:34:20","09/02/2021 17:34:18",40999,4,3008809,"5ec771e68288e91bf1919096","Firefox 85.0","encoding_b7",2,"SS3",14,936,4,1,1,0,"motor_trial","SS3",7,1,"pred","grocery store.png","bakedpotato.png",6,4
"09/02/2021 22:34:28","09/02/2021 17:34:26",40999,4,3008809,"5ec771e68288e91bf1919096","Firefox 85.0","encoding_b7",2,"SS3",18,559,3,1,1,0,"motor_trial","SS3",7,2,"pred","grocery store.png","pomegranate.png",1,3
"09/02/2021 22:34:31","09/02/2021 17:34:30",40999,4,3008809,"5ec771e68288e91bf1919096","Firefox 85.0","encoding_b7",2,"SS3",20,354,2,1,1,0,"motor_trial","SS3",7,2,"pred","grocery store.png","cherries.png",2,2
"09/02/2021 22:34:35","09/02/2021 17:34:33",40999,4,3008809,"5ec771e68288e91bf1919096","Firefox 85.0","encoding_b7",2,"SS3",22,299,4,1,1,0,"motor_trial","SS3",7,2,"pred","grocery store.png","poutine.png",3,4
"09/02/2021 22:34:39","09/02/2021 17:34:37",40999,4,3008809,"5ec771e68288e91bf1919096","Firefox 85.0","encoding_b7",2,"SS3",24,515,2,1,1,0,"motor_trial","SS3",7,2,"pred","grocery store.png","salad.png",4,2
"09/02/2021 22:34:43","09/02/2021 17:34:41",40999,4,3008809,"5ec771e68288e91bf1919096","Firefox 85.0","encoding_b7",2,"SS3",26,358,1,1,1,0,"motor_trial","SS3",7,2,"pred","grocery store.png","pork.png",5,1
"09/02/2021 22:34:46","09/02/2021 17:34:44",40999,4,3008809,"5ec771e68288e91bf1919096","Firefox 85.0","encoding_b7",2,"SS3",28,407,4,1,1,0,"motor_trial","SS3",7,2,"pred","grocery store.png","beet.png",6,4
"09/02/2021 22:34:55","09/02/2021 17:34:53",40999,4,3008809,"5ec771e68288e91bf1919096","Firefox 85.0","encoding_b7",2,"SS3",32,829,1,1,1,0,"motor_trial","SS3",7,3,"rand","pet store.png","rabbit.png",1,1
"09/02/2021 22:34:59","09/02/2021 17:34:57",40999,4,3008809,"5ec771e68288e91bf1919096","Firefox 85.0","encoding_b7",2,"SS3",34,881,3,1,1,0,"motor_trial","SS3",7,3,"rand","pet store.png","toucan.png",2,3
"09/02/2021 22:35:02","09/02/2021 17:35:01",40999,4,3008809,"5ec771e68288e91bf1919096","Firefox 85.0","encoding_b7",2,"SS3",36,361,2,1,1,0,"motor_trial","SS3",7,3,"rand","pet store.png","squid.png",3,2
"09/02/2021 22:35:06","09/02/2021 17:35:04",40999,4,3008809,"5ec771e68288e91bf1919096","Firefox 85.0","encoding_b7",2,"SS3",38,313,4,1,1,0,"motor_trial","SS3",7,3,"rand","pet store.png","manatee.png",4,4
"09/02/2021 22:35:10","09/02/2021 17:35:08",40999,4,3008809,"5ec771e68288e91bf1919096","Firefox 85.0","encoding_b7",2,"SS3",40,873,2,1,1,0,"motor_trial","SS3",7,3,"rand","pet store.png","hermitcrab.png",5,2
"09/02/2021 22:35:14","09/02/2021 17:35:12",40999,4,3008809,"5ec771e68288e91bf1919096","Firefox 85.0","encoding_b7",2,"SS3",42,336,3,1,1,0,"motor_trial","SS3",7,3,"rand","pet store.png","llama.png",6,3
"09/02/2021 22:35:22","09/02/2021 17:35:20",40999,4,3008809,"5ec771e68288e91bf1919096","Firefox 85.0","encoding_b7",2,"SS3",46,541,4,1,1,0,"motor_trial","SS3",7,4,"rand","pet store.png","mantis.png",1,4
"09/02/2021 22:35:26","09/02/2021 17:35:24",40999,4,3008809,"5ec771e68288e91bf1919096","Firefox 85.0","encoding_b7",2,"SS3",48,508,3,1,1,0,"motor_trial","SS3",7,4,"rand","pet store.png","tiger.png",2,3
"09/02/2021 22:35:30","09/02/2021 17:35:28",40999,4,3008809,"5ec771e68288e91bf1919096","Firefox 85.0","encoding_b7",2,"SS3",50,641,1,1,1,0,"motor_trial","SS3",7,4,"rand","pet store.png","donkey.png",3,1
"09/02/2021 22:35:33","09/02/2021 17:35:31",40999,4,3008809,"5ec771e68288e91bf1919096","Firefox 85.0","encoding_b7",2,"SS3",52,337,2,1,1,0,"motor_trial","SS3",7,4,"rand","pet store.png","goldenretriever.png",4,2
"09/02/2021 22:35:37","09/02/2021 17:35:35",40999,4,3008809,"5ec771e68288e91bf1919096","Firefox 85.0","encoding_b7",2,"SS3",54,445,1,1,1,0,"motor_trial","SS3",7,4,"rand","pet store.png","penguin.png",5,1
"09/02/2021 22:35:41","09/02/2021 17:35:39",40999,4,3008809,"5ec771e68288e91bf1919096","Firefox 85.0","encoding_b7",2,"SS3",56,940,3,1,1,0,"motor_trial","SS3",7,4,"rand","pet store.png","grasshopper.png",6,3
"09/02/2021 22:37:57","09/02/2021 17:37:55",40999,4,3008809,"5ec771e68288e91bf1919096","Firefox 85.0","encoding_b8",2,"SS3",4,649,4,1,1,0,"motor_trial","SS3",8,1,"rand","pet store.png","kangaroo.png",1,4
"09/02/2021 22:38:01","09/02/2021 17:37:59",40999,4,3008809,"5ec771e68288e91bf1919096","Firefox 85.0","encoding_b8",2,"SS3",6,401,2,1,1,0,"motor_trial","SS3",8,1,"rand","pet store.png","zebra.png",2,2
"09/02/2021 22:38:05","09/02/2021 17:38:03",40999,4,3008809,"5ec771e68288e91bf1919096","Firefox 85.0","encoding_b8",2,"SS3",8,482,3,1,1,0,"motor_trial","SS3",8,1,"rand","pet store.png","turtle.png",3,3
"09/02/2021 22:38:08","09/02/2021 17:38:06",40999,4,3008809,"5ec771e68288e91bf1919096","Firefox 85.0","encoding_b8",2,"SS3",10,459,1,1,1,0,"motor_trial","SS3",8,1,"rand","pet store.png","bloodhound.png",4,1
"09/02/2021 22:38:12","09/02/2021 17:38:10",40999,4,3008809,"5ec771e68288e91bf1919096","Firefox 85.0","encoding_b8",2,"SS3",12,570,2,1,1,0,"motor_trial","SS3",8,1,"rand","pet store.png","toad.png",5,2
"09/02/2021 22:38:16","09/02/2021 17:38:14",40999,4,3008809,"5ec771e68288e91bf1919096","Firefox 85.0","encoding_b8",2,"SS3",14,418,1,1,1,0,"motor_trial","SS3",8,1,"rand","pet store.png","goose.png",6,1
"09/02/2021 22:38:24","09/02/2021 17:38:22",40999,4,3008809,"5ec771e68288e91bf1919096","Firefox 85.0","encoding_b8",2,"SS3",18,546,4,1,1,0,"motor_trial","SS3",8,2,"rand","pet store.png","eagle.png",1,4
"09/02/2021 22:38:28","09/02/2021 17:38:26",40999,4,3008809,"5ec771e68288e91bf1919096","Firefox 85.0","encoding_b8",2,"SS3",20,484,1,1,1,0,"motor_trial","SS3",8,2,"rand","pet store.png","bear.png",2,1
"09/02/2021 22:38:31","09/02/2021 17:38:30",40999,4,3008809,"5ec771e68288e91bf1919096","Firefox 85.0","encoding_b8",2,"SS3",22,348,3,1,1,0,"motor_trial","SS3",8,2,"rand","pet store.png","platypus.png",3,3
"09/02/2021 22:38:35","09/02/2021 17:38:33",40999,4,3008809,"5ec771e68288e91bf1919096","Firefox 85.0","encoding_b8",2,"SS3",24,321,2,1,1,0,"motor_trial","SS3",8,2,"rand","pet store.png","badger.png",4,2
"09/02/2021 22:38:41","09/02/2021 17:38:39",40999,4,3008809,"5ec771e68288e91bf1919096","Firefox 85.0","encoding_b8",2,"SS3",26,2181,3,1,1,0,"motor_trial","SS3",8,2,"rand","pet store.png","pangolin.png",5,3
"09/02/2021 22:38:44","09/02/2021 17:38:42",40999,4,3008809,"5ec771e68288e91bf1919096","Firefox 85.0","encoding_b8",2,"SS3",28,414,1,1,1,0,"motor_trial","SS3",8,2,"rand","pet store.png","emu.png",6,1
"09/02/2021 22:38:52","09/02/2021 17:38:50",40999,4,3008809,"5ec771e68288e91bf1919096","Firefox 85.0","encoding_b8",2,"SS3",32,533,3,1,1,0,"motor_trial","SS3",8,3,"pred","grocery store.png","jalapeno.png",1,3
"09/02/2021 22:38:56","09/02/2021 17:38:54",40999,4,3008809,"5ec771e68288e91bf1919096","Firefox 85.0","encoding_b8",2,"SS3",34,326,2,1,1,0,"motor_trial","SS3",8,3,"pred","grocery store.png","mushrooms.png",2,2
"09/02/2021 22:39:00","09/02/2021 17:38:58",40999,4,3008809,"5ec771e68288e91bf1919096","Firefox 85.0","encoding_b8",2,"SS3",36,405,4,1,1,0,"motor_trial","SS3",8,3,"pred","grocery store.png","smores.png",3,4
"09/02/2021 22:39:03","09/02/2021 17:39:01",40999,4,3008809,"5ec771e68288e91bf1919096","Firefox 85.0","encoding_b8",2,"SS3",38,401,2,1,1,0,"motor_trial","SS3",8,3,"pred","grocery store.png","hummus.png",4,2
"09/02/2021 22:39:07","09/02/2021 17:39:05",40999,4,3008809,"5ec771e68288e91bf1919096","Firefox 85.0","encoding_b8",2,"SS3",40,332,1,1,1,0,"motor_trial","SS3",8,3,"pred","grocery store.png","garlic.png",5,1
"09/02/2021 22:39:11","09/02/2021 17:39:09",40999,4,3008809,"5ec771e68288e91bf1919096","Firefox 85.0","encoding_b8",2,"SS3",42,326,4,1,1,0,"motor_trial","SS3",8,3,"pred","grocery store.png","gummybears.png",6,4
"09/02/2021 22:39:19","09/02/2021 17:39:17",40999,4,3008809,"5ec771e68288e91bf1919096","Firefox 85.0","encoding_b8",2,"SS3",46,555,3,1,1,0,"motor_trial","SS3",8,4,"pred","grocery store.png","pretzel.png",1,3
"09/02/2021 22:39:22","09/02/2021 17:39:20",40999,4,3008809,"5ec771e68288e91bf1919096","Firefox 85.0","encoding_b8",2,"SS3",48,302,2,1,1,0,"motor_trial","SS3",8,4,"pred","grocery store.png","cookedchicken.png",2,2
"09/02/2021 22:39:26","09/02/2021 17:39:24",40999,4,3008809,"5ec771e68288e91bf1919096","Firefox 85.0","encoding_b8",2,"SS3",50,332,4,1,1,0,"motor_trial","SS3",8,4,"pred","grocery store.png","milk.png",3,4
"09/02/2021 22:39:30","09/02/2021 17:39:28",40999,4,3008809,"5ec771e68288e91bf1919096","Firefox 85.0","encoding_b8",2,"SS3",52,636,2,1,1,0,"motor_trial","SS3",8,4,"pred","grocery store.png","burger.png",4,2
"09/02/2021 22:39:34","09/02/2021 17:39:32",40999,4,3008809,"5ec771e68288e91bf1919096","Firefox 85.0","encoding_b8",2,"SS3",54,506,1,1,1,0,"motor_trial","SS3",8,4,"pred","grocery store.png","asparagus.png",5,1
"09/02/2021 22:39:37","09/02/2021 17:39:35",40999,4,3008809,"5ec771e68288e91bf1919096","Firefox 85.0","encoding_b8",2,"SS3",56,277,4,1,1,0,"motor_trial","SS3",8,4,"pred","grocery store.png","grapes.png",6,4
"09/02/2021 22:22:48","09/02/2021 17:22:46",40999,4,3008936,"5efa246d81a512824bc2d703","Chrome 88.0.4324.150","encoding_b1",3,"SS2",4,951.175000009243,3,1,1,0,"motor_trial","SS2",1,1,"rand","grocery store.png","lychee.png",1,3
"09/02/2021 22:22:52","09/02/2021 17:22:51",40999,4,3008936,"5efa246d81a512824bc2d703","Chrome 88.0.4324.150","encoding_b1",3,"SS2",6,1009.76999998966,2,1,1,0,"motor_trial","SS2",1,1,"rand","grocery store.png","smores.png",2,2
"09/02/2021 22:22:56","09/02/2021 17:22:55",40999,4,3008936,"5efa246d81a512824bc2d703","Chrome 88.0.4324.150","encoding_b1",3,"SS2",8,638.000000006286,4,1,1,0,"motor_trial","SS2",1,1,"rand","grocery store.png","granola.png",3,4
"09/02/2021 22:23:00","09/02/2021 17:22:59",40999,4,3008936,"5efa246d81a512824bc2d703","Chrome 88.0.4324.150","encoding_b1",3,"SS2",10,624.530000000959,1,1,1,0,"motor_trial","SS2",1,1,"rand","grocery store.png","edamame.png",4,1
"09/02/2021 22:23:04","09/02/2021 17:23:02",40999,4,3008936,"5efa246d81a512824bc2d703","Chrome 88.0.4324.150","encoding_b1",3,"SS2",12,586.429999995744,2,1,1,0,"motor_trial","SS2",1,1,"rand","grocery store.png","watermelon.png",5,2
"09/02/2021 22:23:08","09/02/2021 17:23:07",40999,4,3008936,"5efa246d81a512824bc2d703","Chrome 88.0.4324.150","encoding_b1",3,"SS2",14,748.66500000644,1,1,1,0,"motor_trial","SS2",1,1,"rand","grocery store.png","cake.png",6,1
"09/02/2021 22:23:17","09/02/2021 17:23:15",40999,4,3008936,"5efa246d81a512824bc2d703","Chrome 88.0.4324.150","encoding_b1",3,"SS2",18,674.524999994901,2,1,1,0,"motor_trial","SS2",1,2,"rand","grocery store.png","waffle.png",1,2
"09/02/2021 22:23:20","09/02/2021 17:23:18",40999,4,3008936,"5efa246d81a512824bc2d703","Chrome 88.0.4324.150","encoding_b1",3,"SS2",20,398.730000000796,3,1,1,0,"motor_trial","SS2",1,2,"rand","grocery store.png","caramelapple.png",2,3
"09/02/2021 22:23:26","09/02/2021 17:23:22",40999,4,3008936,"5efa246d81a512824bc2d703","Chrome 88.0.4324.150","encoding_b1",3,"SS2",22,655.564999993658,1,1,1,0,"motor_trial","SS2",1,2,"rand","grocery store.png","hummus.png",3,1
"09/02/2021 22:23:28","09/02/2021 17:23:26",40999,4,3008936,"5efa246d81a512824bc2d703","Chrome 88.0.4324.150","encoding_b1",3,"SS2",24,524.474999998347,3,1,1,0,"motor_trial","SS2",1,2,"rand","grocery store.png","nachos.png",4,3
"09/02/2021 22:23:34","09/02/2021 17:23:30",40999,4,3008936,"5efa246d81a512824bc2d703","Chrome 88.0.4324.150","encoding_b1",3,"SS2",26,428.71500000183,4,1,1,0,"motor_trial","SS2",1,2,"rand","grocery store.png","sandwich.png",5,4
"09/02/2021 22:23:36","09/02/2021 17:23:34",40999,4,3008936,"5efa246d81a512824bc2d703","Chrome 88.0.4324.150","encoding_b1",3,"SS2",28,664.819999990868,1,1,1,0,"motor_trial","SS2",1,2,"rand","grocery store.png","pork.png",6,1
"09/02/2021 22:23:44","09/02/2021 17:23:42",40999,4,3008936,"5efa246d81a512824bc2d703","Chrome 88.0.4324.150","encoding_b1",3,"SS2",32,531.329999997979,1,1,1,0,"motor_trial","SS2",1,3,"pred","pet store.png","platypus.png",1,1
"09/02/2021 22:23:49","09/02/2021 17:23:47",40999,4,3008936,"5efa246d81a512824bc2d703","Chrome 88.0.4324.150","encoding_b1",3,"SS2",34,1325.31500000914,4,1,1,0,"motor_trial","SS2",1,3,"pred","pet store.png","dragonfly.png",2,4
"09/02/2021 22:23:53","09/02/2021 17:23:51",40999,4,3008936,"5efa246d81a512824bc2d703","Chrome 88.0.4324.150","encoding_b1",3,"SS2",36,986.010000007809,3,1,1,0,"motor_trial","SS2",1,3,"pred","pet store.png","parrot.png",3,3
"09/02/2021 22:23:57","09/02/2021 17:23:55",40999,4,3008936,"5efa246d81a512824bc2d703","Chrome 88.0.4324.150","encoding_b1",3,"SS2",38,459.454999989248,4,1,1,0,"motor_trial","SS2",1,3,"pred","pet store.png","shark.png",4,4
"09/02/2021 22:24:01","09/02/2021 17:23:59",40999,4,3008936,"5efa246d81a512824bc2d703","Chrome 88.0.4324.150","encoding_b1",3,"SS2",40,1071.83499999519,2,1,1,0,"motor_trial","SS2",1,3,"pred","pet store.png","owl.png",5,2
"09/02/2021 22:24:05","09/02/2021 17:24:03",40999,4,3008936,"5efa246d81a512824bc2d703","Chrome 88.0.4324.150","encoding_b1",3,"SS2",42,534.404999998515,3,1,1,0,"motor_trial","SS2",1,3,"pred","pet store.png","goose.png",6,3
"09/02/2021 22:24:13","09/02/2021 17:24:11",40999,4,3008936,"5efa246d81a512824bc2d703","Chrome 88.0.4324.150","encoding_b1",3,"SS2",46,454.095000008238,1,1,1,0,"motor_trial","SS2",1,4,"pred","pet store.png","bear.png",1,1
"09/02/2021 22:24:17","09/02/2021 17:24:15",40999,4,3008936,"5efa246d81a512824bc2d703","Chrome 88.0.4324.150","encoding_b1",3,"SS2",48,351.64999999688,4,1,1,0,"motor_trial","SS2",1,4,"pred","pet store.png","lion.png",2,4
"09/02/2021 22:24:20","09/02/2021 17:24:18",40999,4,3008936,"5efa246d81a512824bc2d703","Chrome 88.0.4324.150","encoding_b1",3,"SS2",50,383.565000011004,3,1,1,0,"motor_trial","SS2",1,4,"pred","pet store.png","stingray.png",3,3
"09/02/2021 22:24:24","09/02/2021 17:24:22",40999,4,3008936,"5efa246d81a512824bc2d703","Chrome 88.0.4324.150","encoding_b1",3,"SS2",52,573.570000007749,4,1,1,0,"motor_trial","SS2",1,4,"pred","pet store.png","camel.png",4,4
"09/02/2021 22:24:28","09/02/2021 17:24:26",40999,4,3008936,"5efa246d81a512824bc2d703","Chrome 88.0.4324.150","encoding_b1",3,"SS2",54,650.650000010501,2,1,1,0,"motor_trial","SS2",1,4,"pred","pet store.png","moose.png",5,2
"09/02/2021 22:24:32","09/02/2021 17:24:30",40999,4,3008936,"5efa246d81a512824bc2d703","Chrome 88.0.4324.150","encoding_b1",3,"SS2",56,426.36000001221,3,1,1,0,"motor_trial","SS2",1,4,"pred","pet store.png","panda.png",6,3
"09/02/2021 22:26:47","09/02/2021 17:26:45",40999,4,3008936,"5efa246d81a512824bc2d703","Chrome 88.0.4324.150","encoding_b2",4,"SS2",4,1163.88999999617,1,1,1,0,"motor_trial","SS2",2,1,"pred","pet store.png","elephant.png",1,1
"09/02/2021 22:26:51","09/02/2021 17:26:49",40999,4,3008936,"5efa246d81a512824bc2d703","Chrome 88.0.4324.150","encoding_b2",4,"SS2",6,622.285000004922,4,1,1,0,"motor_trial","SS2",2,1,"pred","pet store.png","goldenretriever.png",2,4
"09/02/2021 22:26:55","09/02/2021 17:26:53",40999,4,3008936,"5efa246d81a512824bc2d703","Chrome 88.0.4324.150","encoding_b2",4,"SS2",8,512.670000010985,3,1,1,0,"motor_trial","SS2",2,1,"pred","pet store.png","turkey.png",3,3
"09/02/2021 22:26:59","09/02/2021 17:26:57",40999,4,3008936,"5efa246d81a512824bc2d703","Chrome 88.0.4324.150","encoding_b2",4,"SS2",10,544.965000008233,4,1,1,0,"motor_trial","SS2",2,1,"pred","pet store.png","snake.png",4,4
"09/02/2021 22:27:03","09/02/2021 17:27:01",40999,4,3008936,"5efa246d81a512824bc2d703","Chrome 88.0.4324.150","encoding_b2",4,"SS2",12,769.61499999743,2,1,1,0,"motor_trial","SS2",2,1,"pred","pet store.png","hedgehog.png",5,2
"09/02/2021 22:27:07","09/02/2021 17:27:05",40999,4,3008936,"5efa246d81a512824bc2d703","Chrome 88.0.4324.150","encoding_b2",4,"SS2",14,411.825000002864,3,1,1,0,"motor_trial","SS2",2,1,"pred","pet store.png","rhino.png",6,3
"09/02/2021 22:27:15","09/02/2021 17:27:13",40999,4,3008936,"5efa246d81a512824bc2d703","Chrome 88.0.4324.150","encoding_b2",4,"SS2",18,721.965000004275,3,1,1,0,"motor_trial","SS2",2,2,"rand","grocery store.png","brusselsprouts.png",1,3
"09/02/2021 22:27:19","09/02/2021 17:27:17",40999,4,3008936,"5efa246d81a512824bc2d703","Chrome 88.0.4324.150","encoding_b2",4,"SS2",20,380.825000000186,4,1,1,0,"motor_trial","SS2",2,2,"rand","grocery store.png","kiwi.png",2,4
"09/02/2021 22:27:23","09/02/2021 17:27:21",40999,4,3008936,"5efa246d81a512824bc2d703","Chrome 88.0.4324.150","encoding_b2",4,"SS2",22,711.074999999255,2,1,1,0,"motor_trial","SS2",2,2,"rand","grocery store.png","bread.png",3,2
"09/02/2021 22:27:27","09/02/2021 17:27:25",40999,4,3008936,"5efa246d81a512824bc2d703","Chrome 88.0.4324.150","encoding_b2",4,"SS2",24,1113.97500000021,1,1,1,0,"motor_trial","SS2",2,2,"rand","grocery store.png","cheese.png",4,1
"09/02/2021 22:27:31","09/02/2021 17:27:29",40999,4,3008936,"5efa246d81a512824bc2d703","Chrome 88.0.4324.150","encoding_b2",4,"SS2",26,517.589999988559,4,1,1,0,"motor_trial","SS2",2,2,"rand","grocery store.png","clams.png",5,4
"09/02/2021 22:27:35","09/02/2021 17:27:34",40999,4,3008936,"5efa246d81a512824bc2d703","Chrome 88.0.4324.150","encoding_b2",4,"SS2",28,1215.60999999929,1,1,1,0,"motor_trial","SS2",2,2,"rand","grocery store.png","bagel.png",6,1
"09/02/2021 22:27:43","09/02/2021 17:27:42",40999,4,3008936,"5efa246d81a512824bc2d703","Chrome 88.0.4324.150","encoding_b2",4,"SS2",32,531.430000002729,1,1,1,0,"motor_trial","SS2",2,3,"pred","pet store.png","toucan.png",1,1
"09/02/2021 22:27:48","09/02/2021 17:27:46",40999,4,3008936,"5efa246d81a512824bc2d703","Chrome 88.0.4324.150","encoding_b2",4,"SS2",34,842.009999993024,4,1,1,0,"motor_trial","SS2",2,3,"pred","pet store.png","llama.png",2,4
"09/02/2021 22:27:51","09/02/2021 17:27:49",40999,4,3008936,"5efa246d81a512824bc2d703","Chrome 88.0.4324.150","encoding_b2",4,"SS2",36,358.115000010002,3,1,1,0,"motor_trial","SS2",2,3,"pred","pet store.png","squid.png",3,3
"09/02/2021 22:27:55","09/02/2021 17:27:53",40999,4,3008936,"5efa246d81a512824bc2d703","Chrome 88.0.4324.150","encoding_b2",4,"SS2",38,611.384999996517,4,1,1,0,"motor_trial","SS2",2,3,"pred","pet store.png","grasshopper.png",4,4
"09/02/2021 22:28:00","09/02/2021 17:27:58",40999,4,3008936,"5efa246d81a512824bc2d703","Chrome 88.0.4324.150","encoding_b2",4,"SS2",40,964.035000011791,2,1,1,0,"motor_trial","SS2",2,3,"pred","pet store.png","sheep.png",5,2
"09/02/2021 22:28:03","09/02/2021 17:28:01",40999,4,3008936,"5efa246d81a512824bc2d703","Chrome 88.0.4324.150","encoding_b2",4,"SS2",42,390.395000009448,3,1,1,0,"motor_trial","SS2",2,3,"pred","pet store.png","squirrel.png",6,3
"09/02/2021 22:28:11","09/02/2021 17:28:10",40999,4,3008936,"5efa246d81a512824bc2d703","Chrome 88.0.4324.150","encoding_b2",4,"SS2",46,567.714999997406,4,1,1,0,"motor_trial","SS2",2,4,"rand","grocery store.png","fortunecookie.png",1,4
"09/02/2021 22:28:15","09/02/2021 17:28:14",40999,4,3008936,"5efa246d81a512824bc2d703","Chrome 88.0.4324.150","encoding_b2",4,"SS2",48,744.814999998198,2,1,1,0,"motor_trial","SS2",2,4,"rand","grocery store.png","orange.png",2,2
"09/02/2021 22:28:19","09/02/2021 17:28:17",40999,4,3008936,"5efa246d81a512824bc2d703","Chrome 88.0.4324.150","encoding_b2",4,"SS2",50,556.700000001001,1,1,1,0,"motor_trial","SS2",2,4,"rand","grocery store.png","taco.png",3,1
"09/02/2021 22:28:23","09/02/2021 17:28:21",40999,4,3008936,"5efa246d81a512824bc2d703","Chrome 88.0.4324.150","encoding_b2",4,"SS2",52,407.649999993737,3,1,1,0,"motor_trial","SS2",2,4,"rand","grocery store.png","pizza.png",4,3
"09/02/2021 22:28:27","09/02/2021 17:28:25",40999,4,3008936,"5efa246d81a512824bc2d703","Chrome 88.0.4324.150","encoding_b2",4,"SS2",54,666.655000008177,2,1,1,0,"motor_trial","SS2",2,4,"rand","grocery store.png","hotdog.png",5,2
"09/02/2021 22:28:31","09/02/2021 17:28:29",40999,4,3008936,"5efa246d81a512824bc2d703","Chrome 88.0.4324.150","encoding_b2",4,"SS2",56,490.990000005695,3,1,1,0,"motor_trial","SS2",2,4,"rand","grocery store.png","tomato.png",6,3
"09/02/2021 22:31:29","09/02/2021 17:31:27",40999,4,3008936,"5efa246d81a512824bc2d703","Chrome 88.0.4324.150","encoding_b3",2,"SS2",4,992.265000008047,1,1,1,0,"motor_trial","SS2",3,1,"pred","pet store.png","ferret.png",1,1
"09/02/2021 22:31:33","09/02/2021 17:31:31",40999,4,3008936,"5efa246d81a512824bc2d703","Chrome 88.0.4324.150","encoding_b3",2,"SS2",6,467.134999998962,4,1,1,0,"motor_trial","SS2",3,1,"pred","pet store.png","beetle.png",2,4
"09/02/2021 22:31:37","09/02/2021 17:31:35",40999,4,3008936,"5efa246d81a512824bc2d703","Chrome 88.0.4324.150","encoding_b3",2,"SS2",8,712.335000003804,3,1,1,0,"motor_trial","SS2",3,1,"pred","pet store.png","emu.png",3,3
"09/02/2021 22:31:41","09/02/2021 17:31:39",40999,4,3008936,"5efa246d81a512824bc2d703","Chrome 88.0.4324.150","encoding_b3",2,"SS2",10,518.479999998817,4,1,1,0,"motor_trial","SS2",3,1,"pred","pet store.png","cardinal.png",4,4
"09/02/2021 22:31:45","09/02/2021 17:31:43",40999,4,3008936,"5efa246d81a512824bc2d703","Chrome 88.0.4324.150","encoding_b3",2,"SS2",12,674.020000005839,2,1,1,0,"motor_trial","SS2",3,1,"pred","pet store.png","ostrich.png",5,2
"09/02/2021 22:31:49","09/02/2021 17:31:47",40999,4,3008936,"5efa246d81a512824bc2d703","Chrome 88.0.4324.150","encoding_b3",2,"SS2",14,513.595000011264,3,1,1,0,"motor_trial","SS2",3,1,"pred","pet store.png","pangolin.png",6,3
"09/02/2021 22:31:57","09/02/2021 17:31:55",40999,4,3008936,"5efa246d81a512824bc2d703","Chrome 88.0.4324.150","encoding_b3",2,"SS2",18,750.115000002552,3,1,1,0,"motor_trial","SS2",3,2,"rand","grocery store.png","avocado.png",1,3
"09/02/2021 22:32:01","09/02/2021 17:31:59",40999,4,3008936,"5efa246d81a512824bc2d703","Chrome 88.0.4324.150","encoding_b3",2,"SS2",20,873.939999990398,1,1,1,0,"motor_trial","SS2",3,2,"rand","grocery store.png","strawberries.png",2,1
"09/02/2021 22:32:05","09/02/2021 17:32:03",40999,4,3008936,"5efa246d81a512824bc2d703","Chrome 88.0.4324.150","encoding_b3",2,"SS2",22,469.675000000279,4,1,1,0,"motor_trial","SS2",3,2,"rand","grocery store.png","peaches.png",3,4
"09/02/2021 22:32:09","09/02/2021 17:32:07",40999,4,3008936,"5efa246d81a512824bc2d703","Chrome 88.0.4324.150","encoding_b3",2,"SS2",24,739.105000000563,2,1,1,0,"motor_trial","SS2",3,2,"rand","grocery store.png","blackpepper.png",4,2
"09/02/2021 22:32:13","09/02/2021 17:32:11",40999,4,3008936,"5efa246d81a512824bc2d703","Chrome 88.0.4324.150","encoding_b3",2,"SS2",26,709.699999992154,4,1,1,0,"motor_trial","SS2",3,2,"rand","grocery store.png","starfruit.png",5,4
"09/02/2021 22:32:17","09/02/2021 17:32:15",40999,4,3008936,"5efa246d81a512824bc2d703","Chrome 88.0.4324.150","encoding_b3",2,"SS2",28,613.704999996116,1,1,1,0,"motor_trial","SS2",3,2,"rand","grocery store.png","rice.png",6,1
"09/02/2021 22:32:25","09/02/2021 17:32:23",40999,4,3008936,"5efa246d81a512824bc2d703","Chrome 88.0.4324.150","encoding_b3",2,"SS2",32,508.78499999817,1,1,1,0,"motor_trial","SS2",3,3,"pred","pet store.png","frog.png",1,1
"09/02/2021 22:32:29","09/02/2021 17:32:27",40999,4,3008936,"5efa246d81a512824bc2d703","Chrome 88.0.4324.150","encoding_b3",2,"SS2",34,661.980000004405,4,1,1,0,"motor_trial","SS2",3,3,"pred","pet store.png","snail.png",2,4
"09/02/2021 22:32:33","09/02/2021 17:32:31",40999,4,3008936,"5efa246d81a512824bc2d703","Chrome 88.0.4324.150","encoding_b3",2,"SS2",36,527.815000008559,3,1,1,0,"motor_trial","SS2",3,3,"pred","pet store.png","hippo.png",3,3
"09/02/2021 22:32:37","09/02/2021 17:32:35",40999,4,3008936,"5efa246d81a512824bc2d703","Chrome 88.0.4324.150","encoding_b3",2,"SS2",38,580.600000001141,4,1,1,0,"motor_trial","SS2",3,3,"pred","pet store.png","iguana.png",4,4
"09/02/2021 22:32:41","09/02/2021 17:32:39",40999,4,3008936,"5efa246d81a512824bc2d703","Chrome 88.0.4324.150","encoding_b3",2,"SS2",40,801.02500000794,2,1,1,0,"motor_trial","SS2",3,3,"pred","pet store.png","surgeonfish.png",5,2
"09/02/2021 22:32:45","09/02/2021 17:32:43",40999,4,3008936,"5efa246d81a512824bc2d703","Chrome 88.0.4324.150","encoding_b3",2,"SS2",42,483.430000007502,3,1,1,0,"motor_trial","SS2",3,3,"pred","pet store.png","octopus.png",6,3
"09/02/2021 22:32:53","09/02/2021 17:32:51",40999,4,3008936,"5efa246d81a512824bc2d703","Chrome 88.0.4324.150","encoding_b3",2,"SS2",46,710.299999991548,4,1,1,0,"motor_trial","SS2",3,4,"rand","grocery store.png","guava.png",1,4
"09/02/2021 22:32:57","09/02/2021 17:32:55",40999,4,3008936,"5efa246d81a512824bc2d703","Chrome 88.0.4324.150","encoding_b3",2,"SS2",48,762.669999996433,2,1,1,0,"motor_trial","SS2",3,4,"rand","grocery store.png","chocolate.png",2,2
"09/02/2021 22:33:01","09/02/2021 17:32:59",40999,4,3008936,"5efa246d81a512824bc2d703","Chrome 88.0.4324.150","encoding_b3",2,"SS2",50,602.175000007264,3,1,1,0,"motor_trial","SS2",3,4,"rand","grocery store.png","chocolatemilk.png",3,3
"09/02/2021 22:33:05","09/02/2021 17:33:03",40999,4,3008936,"5efa246d81a512824bc2d703","Chrome 88.0.4324.150","encoding_b3",2,"SS2",52,681.399999986752,1,1,1,0,"motor_trial","SS2",3,4,"rand","grocery store.png","poutine.png",4,1
"09/02/2021 22:33:11","09/02/2021 17:33:09",40999,4,3008936,"5efa246d81a512824bc2d703","Chrome 88.0.4324.150","encoding_b3",2,"SS2",54,2677.69499999122,2,1,1,0,"motor_trial","SS2",3,4,"rand","grocery store.png","acaibowl.png",5,2
"09/02/2021 22:33:14","09/02/2021 17:33:13",40999,4,3008936,"5efa246d81a512824bc2d703","Chrome 88.0.4324.150","encoding_b3",2,"SS2",56,418.41499999282,1,1,1,0,"motor_trial","SS2",3,4,"rand","grocery store.png","beet.png",6,1
"09/02/2021 22:35:07","09/02/2021 17:35:05",40999,4,3008936,"5efa246d81a512824bc2d703","Chrome 88.0.4324.150","encoding_b4",2,"SS2",4,724.619999993593,2,1,1,0,"motor_trial","SS2",4,1,"rand","grocery store.png","ramen.png",1,2
"09/02/2021 22:35:11","09/02/2021 17:35:09",40999,4,3008936,"5efa246d81a512824bc2d703","Chrome 88.0.4324.150","encoding_b4",2,"SS2",6,631.114999996498,1,1,1,0,"motor_trial","SS2",4,1,"rand","grocery store.png","cherries.png",2,1
"09/02/2021 22:35:15","09/02/2021 17:35:13",40999,4,3008936,"5efa246d81a512824bc2d703","Chrome 88.0.4324.150","encoding_b4",2,"SS2",8,712.924999999814,4,1,1,0,"motor_trial","SS2",4,1,"rand","grocery store.png","potatochips.png",3,4
"09/02/2021 22:35:19","09/02/2021 17:35:17",40999,4,3008936,"5efa246d81a512824bc2d703","Chrome 88.0.4324.150","encoding_b4",2,"SS2",10,734.205000000657,3,1,1,0,"motor_trial","SS2",4,1,"rand","grocery store.png","seaweed.png",4,3
"09/02/2021 22:35:23","09/02/2021 17:35:21",40999,4,3008936,"5efa246d81a512824bc2d703","Chrome 88.0.4324.150","encoding_b4",2,"SS2",12,506.059999999707,4,1,1,0,"motor_trial","SS2",4,1,"rand","grocery store.png","cupnoodle.png",5,4
"09/02/2021 22:35:27","09/02/2021 17:35:25",40999,4,3008936,"5efa246d81a512824bc2d703","Chrome 88.0.4324.150","encoding_b4",2,"SS2",14,493.15999999817,1,1,1,0,"motor_trial","SS2",4,1,"rand","grocery store.png","raspberries.png",6,1
"09/02/2021 22:35:35","09/02/2021 17:35:33",40999,4,3008936,"5efa246d81a512824bc2d703","Chrome 88.0.4324.150","encoding_b4",2,"SS2",18,540.844999995898,1,1,1,0,"motor_trial","SS2",4,2,"pred","pet store.png","crow.png",1,1
"09/02/2021 22:35:39","09/02/2021 17:35:37",40999,4,3008936,"5efa246d81a512824bc2d703","Chrome 88.0.4324.150","encoding_b4",2,"SS2",20,438.435000003665,4,1,1,0,"motor_trial","SS2",4,2,"pred","pet store.png","wolf.png",2,4
"09/02/2021 22:35:42","09/02/2021 17:35:40",40999,4,3008936,"5efa246d81a512824bc2d703","Chrome 88.0.4324.150","encoding_b4",2,"SS2",22,452.785000001313,3,1,1,0,"motor_trial","SS2",4,2,"pred","pet store.png","cheetah.png",3,3
"09/02/2021 22:35:46","09/02/2021 17:35:44",40999,4,3008936,"5efa246d81a512824bc2d703","Chrome 88.0.4324.150","encoding_b4",2,"SS2",24,327.2799999977,4,1,1,0,"motor_trial","SS2",4,2,"pred","pet store.png","fox.png",4,4
"09/02/2021 22:35:50","09/02/2021 17:35:48",40999,4,3008936,"5efa246d81a512824bc2d703","Chrome 88.0.4324.150","encoding_b4",2,"SS2",26,561.555000007502,2,1,1,0,"motor_trial","SS2",4,2,"pred","pet store.png","kangaroo.png",5,2
"09/02/2021 22:35:53","09/02/2021 17:35:52",40999,4,3008936,"5efa246d81a512824bc2d703","Chrome 88.0.4324.150","encoding_b4",2,"SS2",28,367.570000002161,3,1,1,0,"motor_trial","SS2",4,2,"pred","pet store.png","manatee.png",6,3
"09/02/2021 22:36:02","09/02/2021 17:36:00",40999,4,3008936,"5efa246d81a512824bc2d703","Chrome 88.0.4324.150","encoding_b4",2,"SS2",32,1233.5449999955,2,1,1,0,"motor_trial","SS2",4,3,"rand","grocery store.png","pineapple.png",1,2
"09/02/2021 22:36:06","09/02/2021 17:36:04",40999,4,3008936,"5efa246d81a512824bc2d703","Chrome 88.0.4324.150","encoding_b4",2,"SS2",34,485.885000001872,4,1,1,0,"motor_trial","SS2",4,3,"rand","grocery store.png","broccoli.png",2,4
"09/02/2021 22:36:10","09/02/2021 17:36:08",40999,4,3008936,"5efa246d81a512824bc2d703","Chrome 88.0.4324.150","encoding_b4",2,"SS2",36,378.420000008191,3,1,1,0,"motor_trial","SS2",4,3,"rand","grocery store.png","pie.png",3,3
"09/02/2021 22:36:14","09/02/2021 17:36:12",40999,4,3008936,"5efa246d81a512824bc2d703","Chrome 88.0.4324.150","encoding_b4",2,"SS2",38,512.400000006892,1,1,1,0,"motor_trial","SS2",4,3,"rand","grocery store.png","cabbage.png",4,1
"09/02/2021 22:36:17","09/02/2021 17:36:16",40999,4,3008936,"5efa246d81a512824bc2d703","Chrome 88.0.4324.150","encoding_b4",2,"SS2",40,593.37499999674,4,1,1,0,"motor_trial","SS2",4,3,"rand","grocery store.png","mustard.png",5,4
"09/02/2021 22:36:22","09/02/2021 17:36:20",40999,4,3008936,"5efa246d81a512824bc2d703","Chrome 88.0.4324.150","encoding_b4",2,"SS2",42,778.274999989662,1,1,1,0,"motor_trial","SS2",4,3,"rand","grocery store.png","icecreamsandwich.png",6,1
"09/02/2021 22:36:30","09/02/2021 17:36:28",40999,4,3008936,"5efa246d81a512824bc2d703","Chrome 88.0.4324.150","encoding_b4",2,"SS2",46,764.540000003763,1,1,1,0,"motor_trial","SS2",4,4,"pred","pet store.png","polarbear.png",1,1
