"utc_date","local_date","exp_id","exp_ver","id","prolific_id","browser","task","task_ver","gorilla_counterbalance","trial_row","rt","response","attempt","accuracy","dishonest","display","counterbalance_order","list","event","condition","event_name","seq_pos","spatial_pos","recon_correct","temp_stim1","temp_stim2","temp_cond","temp_correct","spatial_stim","spatial_correct","temp_conf"
"09/02/2021 22:12:39","09/02/2021 17:12:39",40999,4,3008743,"5f3c23cbcee6b3a3c4faff76","Firefox 85.0","retrieval_b1",4,"SS5",4,2141,"caramelapple.png",1,1,0,"recon_trial","SS5",1,1,"pred","grocery store.png",1,1,"caramelapple.png",NA,NA,NA,NA,NA,NA,NA
"09/02/2021 22:12:40","09/02/2021 17:12:41",40999,4,3008743,"5f3c23cbcee6b3a3c4faff76","Firefox 85.0","retrieval_b1",4,"SS5",5,1513,"poutine.png",1,1,0,"recon_trial","SS5",1,1,"pred","grocery store.png",2,4,"poutine.png",NA,NA,NA,NA,NA,NA,NA
"09/02/2021 22:12:42","09/02/2021 17:12:42",40999,4,3008743,"5f3c23cbcee6b3a3c4faff76","Firefox 85.0","retrieval_b1",4,"SS5",6,1326,"mushrooms.png",1,1,0,"recon_trial","SS5",1,1,"pred","grocery store.png",3,3,"mushrooms.png",NA,NA,NA,NA,NA,NA,NA
"09/02/2021 22:12:43","09/02/2021 17:12:44",40999,4,3008743,"5f3c23cbcee6b3a3c4faff76","Firefox 85.0","retrieval_b1",4,"SS5",7,1348,"onion.png",1,1,0,"recon_trial","SS5",1,1,"pred","grocery store.png",4,4,"onion.png",NA,NA,NA,NA,NA,NA,NA
"09/02/2021 22:12:44","09/02/2021 17:12:45",40999,4,3008743,"5f3c23cbcee6b3a3c4faff76","Firefox 85.0","retrieval_b1",4,"SS5",8,1290,"broccoli.png",1,1,0,"recon_trial","SS5",1,1,"pred","grocery store.png",5,2,"broccoli.png",NA,NA,NA,NA,NA,NA,NA
"09/02/2021 22:12:46","09/02/2021 17:12:46",40999,4,3008743,"5f3c23cbcee6b3a3c4faff76","Firefox 85.0","retrieval_b1",4,"SS5",9,1358,"basil.png",1,1,0,"recon_trial","SS5",1,1,"pred","grocery store.png",6,3,"basil.png",NA,NA,NA,NA,NA,NA,NA
"09/02/2021 22:12:49","09/02/2021 17:12:50",40999,4,3008743,"5f3c23cbcee6b3a3c4faff76","Firefox 85.0","retrieval_b1",4,"SS5",11,2484,"pufferfish.png",1,1,0,"recon_trial","SS5",1,3,"rand","pet store.png",1,4,"pufferfish.png",NA,NA,NA,NA,NA,NA,NA
"09/02/2021 22:12:51","09/02/2021 17:12:51",40999,4,3008743,"5f3c23cbcee6b3a3c4faff76","Firefox 85.0","retrieval_b1",4,"SS5",12,1463,"dolphin.png",1,1,0,"recon_trial","SS5",1,3,"rand","pet store.png",2,3,"dolphin.png",NA,NA,NA,NA,NA,NA,NA
"09/02/2021 22:12:52","09/02/2021 17:12:53",40999,4,3008743,"5f3c23cbcee6b3a3c4faff76","Firefox 85.0","retrieval_b1",4,"SS5",13,1519,"stingray.png",1,1,0,"recon_trial","SS5",1,3,"rand","pet store.png",3,1,"stingray.png",NA,NA,NA,NA,NA,NA,NA
"09/02/2021 22:12:55","09/02/2021 17:12:56",40999,4,3008743,"5f3c23cbcee6b3a3c4faff76","Firefox 85.0","retrieval_b1",4,"SS5",14,2746,"crocodile.png",1,1,0,"recon_trial","SS5",1,3,"rand","pet store.png",4,2,"crocodile.png",NA,NA,NA,NA,NA,NA,NA
"09/02/2021 22:12:57","09/02/2021 17:12:58",40999,4,3008743,"5f3c23cbcee6b3a3c4faff76","Firefox 85.0","retrieval_b1",4,"SS5",15,1949,"boar.png",1,1,0,"recon_trial","SS5",1,3,"rand","pet store.png",5,1,"boar.png",NA,NA,NA,NA,NA,NA,NA
"09/02/2021 22:12:58","09/02/2021 17:12:59",40999,4,3008743,"5f3c23cbcee6b3a3c4faff76","Firefox 85.0","retrieval_b1",4,"SS5",16,1338,"llama.png",1,1,0,"recon_trial","SS5",1,3,"rand","pet store.png",6,3,"llama.png",NA,NA,NA,NA,NA,NA,NA
"09/02/2021 22:17:00","09/02/2021 17:17:00",40999,4,3008743,"5f3c23cbcee6b3a3c4faff76","Firefox 85.0","retrieval_b2",3,"SS5",11,2983,"bettafish.png",1,1,0,"recon_trial","SS5",2,2,"rand","pet store.png",1,2,"bettafish.png",NA,NA,NA,NA,NA,NA,NA
"09/02/2021 22:17:02","09/02/2021 17:17:03",40999,4,3008743,"5f3c23cbcee6b3a3c4faff76","Firefox 85.0","retrieval_b2",3,"SS5",12,2623,"chameleon.png",1,1,0,"recon_trial","SS5",2,2,"rand","pet store.png",2,4,"chameleon.png",NA,NA,NA,NA,NA,NA,NA
"09/02/2021 22:17:05","09/02/2021 17:17:05",40999,4,3008743,"5f3c23cbcee6b3a3c4faff76","Firefox 85.0","retrieval_b2",3,"SS5",13,2309,"ladybug.png",1,0,0,"recon_trial","SS5",2,2,"rand","pet store.png",3,3,"octopus.png",NA,NA,NA,NA,NA,NA,NA
"09/02/2021 22:17:07","09/02/2021 17:17:08",40999,4,3008743,"5f3c23cbcee6b3a3c4faff76","Firefox 85.0","retrieval_b2",3,"SS5",14,2589,"octopus.png",1,0,0,"recon_trial","SS5",2,2,"rand","pet store.png",4,1,"ladybug.png",NA,NA,NA,NA,NA,NA,NA
"09/02/2021 22:17:09","09/02/2021 17:17:10",40999,4,3008743,"5f3c23cbcee6b3a3c4faff76","Firefox 85.0","retrieval_b2",3,"SS5",15,2208,"gorilla.png",1,1,0,"recon_trial","SS5",2,2,"rand","pet store.png",5,3,"gorilla.png",NA,NA,NA,NA,NA,NA,NA
"09/02/2021 22:17:10","09/02/2021 17:17:11",40999,4,3008743,"5f3c23cbcee6b3a3c4faff76","Firefox 85.0","retrieval_b2",3,"SS5",16,848,"killerwhale.png",1,1,0,"recon_trial","SS5",2,2,"rand","pet store.png",6,4,"killerwhale.png",NA,NA,NA,NA,NA,NA,NA
"09/02/2021 22:17:13","09/02/2021 17:17:14",40999,4,3008743,"5f3c23cbcee6b3a3c4faff76","Firefox 85.0","retrieval_b2",3,"SS5",4,2183,"peanutbutter.png",1,1,0,"recon_trial","SS5",2,1,"pred","grocery store.png",1,1,"peanutbutter.png",NA,NA,NA,NA,NA,NA,NA
"09/02/2021 22:17:15","09/02/2021 17:17:16",40999,4,3008743,"5f3c23cbcee6b3a3c4faff76","Firefox 85.0","retrieval_b2",3,"SS5",5,1557,"acaibowl.png",1,1,0,"recon_trial","SS5",2,1,"pred","grocery store.png",2,4,"acaibowl.png",NA,NA,NA,NA,NA,NA,NA
"09/02/2021 22:17:17","09/02/2021 17:17:18",40999,4,3008743,"5f3c23cbcee6b3a3c4faff76","Firefox 85.0","retrieval_b2",3,"SS5",6,2136,"clams.png",1,1,0,"recon_trial","SS5",2,1,"pred","grocery store.png",3,3,"clams.png",NA,NA,NA,NA,NA,NA,NA
"09/02/2021 22:17:19","09/02/2021 17:17:19",40999,4,3008743,"5f3c23cbcee6b3a3c4faff76","Firefox 85.0","retrieval_b2",3,"SS5",7,1279,"gummybears.png",1,1,0,"recon_trial","SS5",2,1,"pred","grocery store.png",4,4,"gummybears.png",NA,NA,NA,NA,NA,NA,NA
"09/02/2021 22:17:20","09/02/2021 17:17:21",40999,4,3008743,"5f3c23cbcee6b3a3c4faff76","Firefox 85.0","retrieval_b2",3,"SS5",8,1556,"dragonfruit.png",1,1,0,"recon_trial","SS5",2,1,"pred","grocery store.png",5,2,"dragonfruit.png",NA,NA,NA,NA,NA,NA,NA
"09/02/2021 22:17:21","09/02/2021 17:17:22",40999,4,3008743,"5f3c23cbcee6b3a3c4faff76","Firefox 85.0","retrieval_b2",3,"SS5",9,1313,"cupnoodle.png",1,1,0,"recon_trial","SS5",2,1,"pred","grocery store.png",6,3,"cupnoodle.png",NA,NA,NA,NA,NA,NA,NA
"09/02/2021 22:21:17","09/02/2021 17:21:17",40999,4,3008743,"5f3c23cbcee6b3a3c4faff76","Firefox 85.0","retrieval_b3",3,"SS5",4,2212,"orange.png",1,1,0,"recon_trial","SS5",3,2,"pred","grocery store.png",1,1,"orange.png",NA,NA,NA,NA,NA,NA,NA
"09/02/2021 22:21:19","09/02/2021 17:21:19",40999,4,3008743,"5f3c23cbcee6b3a3c4faff76","Firefox 85.0","retrieval_b3",3,"SS5",5,1931,"lychee.png",1,1,0,"recon_trial","SS5",3,2,"pred","grocery store.png",2,4,"lychee.png",NA,NA,NA,NA,NA,NA,NA
"09/02/2021 22:21:22","09/02/2021 17:21:22",40999,4,3008743,"5f3c23cbcee6b3a3c4faff76","Firefox 85.0","retrieval_b3",3,"SS5",6,3021,"popcorn.png",1,1,0,"recon_trial","SS5",3,2,"pred","grocery store.png",3,3,"popcorn.png",NA,NA,NA,NA,NA,NA,NA
"09/02/2021 22:21:24","09/02/2021 17:21:25",40999,4,3008743,"5f3c23cbcee6b3a3c4faff76","Firefox 85.0","retrieval_b3",3,"SS5",7,2744,"cookedchicken.png",1,1,0,"recon_trial","SS5",3,2,"pred","grocery store.png",4,4,"cookedchicken.png",NA,NA,NA,NA,NA,NA,NA
"09/02/2021 22:21:27","09/02/2021 17:21:28",40999,4,3008743,"5f3c23cbcee6b3a3c4faff76","Firefox 85.0","retrieval_b3",3,"SS5",8,2977,"strawberries.png",1,1,0,"recon_trial","SS5",3,2,"pred","grocery store.png",5,2,"strawberries.png",NA,NA,NA,NA,NA,NA,NA
"09/02/2021 22:21:28","09/02/2021 17:21:29",40999,4,3008743,"5f3c23cbcee6b3a3c4faff76","Firefox 85.0","retrieval_b3",3,"SS5",9,831,"kiwi.png",1,1,0,"recon_trial","SS5",3,2,"pred","grocery store.png",6,3,"kiwi.png",NA,NA,NA,NA,NA,NA,NA
"09/02/2021 22:21:31","09/02/2021 17:21:32",40999,4,3008743,"5f3c23cbcee6b3a3c4faff76","Firefox 85.0","retrieval_b3",3,"SS5",11,2224,"zebra.png",1,1,0,"recon_trial","SS5",3,1,"rand","pet store.png",1,2,"zebra.png",NA,NA,NA,NA,NA,NA,NA
"09/02/2021 22:21:34","09/02/2021 17:21:35",40999,4,3008743,"5f3c23cbcee6b3a3c4faff76","Firefox 85.0","retrieval_b3",3,"SS5",12,2647,"chicken.png",1,0,0,"recon_trial","SS5",3,1,"rand","pet store.png",2,4,"turtle.png",NA,NA,NA,NA,NA,NA,NA
"09/02/2021 22:21:36","09/02/2021 17:21:37",40999,4,3008743,"5f3c23cbcee6b3a3c4faff76","Firefox 85.0","retrieval_b3",3,"SS5",13,1560,"lemur.png",1,0,0,"recon_trial","SS5",3,1,"rand","pet store.png",3,3,"chicken.png",NA,NA,NA,NA,NA,NA,NA
"09/02/2021 22:21:37","09/02/2021 17:21:38",40999,4,3008743,"5f3c23cbcee6b3a3c4faff76","Firefox 85.0","retrieval_b3",3,"SS5",14,1536,"sheep.png",1,0,0,"recon_trial","SS5",3,1,"rand","pet store.png",4,1,"lemur.png",NA,NA,NA,NA,NA,NA,NA
"09/02/2021 22:21:39","09/02/2021 17:21:40",40999,4,3008743,"5f3c23cbcee6b3a3c4faff76","Firefox 85.0","retrieval_b3",3,"SS5",15,1477,"turtle.png",1,0,0,"recon_trial","SS5",3,1,"rand","pet store.png",5,4,"sheep.png",NA,NA,NA,NA,NA,NA,NA
"09/02/2021 22:21:40","09/02/2021 17:21:41",40999,4,3008743,"5f3c23cbcee6b3a3c4faff76","Firefox 85.0","retrieval_b3",3,"SS5",16,1435,"redpanda.png",1,1,0,"recon_trial","SS5",3,1,"rand","pet store.png",6,1,"redpanda.png",NA,NA,NA,NA,NA,NA,NA
"09/02/2021 22:25:21","09/02/2021 17:25:22",40999,4,3008743,"5f3c23cbcee6b3a3c4faff76","Firefox 85.0","retrieval_b4",3,"SS5",11,2233,"bear.png",1,1,0,"recon_trial","SS5",4,1,"rand","pet store.png",1,4,"bear.png",NA,NA,NA,NA,NA,NA,NA
"09/02/2021 22:25:23","09/02/2021 17:25:24",40999,4,3008743,"5f3c23cbcee6b3a3c4faff76","Firefox 85.0","retrieval_b4",3,"SS5",12,1308,"hedgehog.png",1,1,0,"recon_trial","SS5",4,1,"rand","pet store.png",2,2,"hedgehog.png",NA,NA,NA,NA,NA,NA,NA
"09/02/2021 22:25:24","09/02/2021 17:25:25",40999,4,3008743,"5f3c23cbcee6b3a3c4faff76","Firefox 85.0","retrieval_b4",3,"SS5",13,1475,"cat.png",1,1,0,"recon_trial","SS5",4,1,"rand","pet store.png",3,3,"cat.png",NA,NA,NA,NA,NA,NA,NA
"09/02/2021 22:25:26","09/02/2021 17:25:27",40999,4,3008743,"5f3c23cbcee6b3a3c4faff76","Firefox 85.0","retrieval_b4",3,"SS5",14,1510,"armadillo.png",1,1,0,"recon_trial","SS5",4,1,"rand","pet store.png",4,1,"armadillo.png",NA,NA,NA,NA,NA,NA,NA
"09/02/2021 22:25:27","09/02/2021 17:25:28",40999,4,3008743,"5f3c23cbcee6b3a3c4faff76","Firefox 85.0","retrieval_b4",3,"SS5",15,1548,"snake.png",1,0,0,"recon_trial","SS5",4,1,"rand","pet store.png",5,2,"moose.png",NA,NA,NA,NA,NA,NA,NA
"09/02/2021 22:25:29","09/02/2021 17:25:30",40999,4,3008743,"5f3c23cbcee6b3a3c4faff76","Firefox 85.0","retrieval_b4",3,"SS5",16,1528,"moose.png",1,0,0,"recon_trial","SS5",4,1,"rand","pet store.png",6,1,"snake.png",NA,NA,NA,NA,NA,NA,NA
"09/02/2021 22:25:32","09/02/2021 17:25:33",40999,4,3008743,"5f3c23cbcee6b3a3c4faff76","Firefox 85.0","retrieval_b4",3,"SS5",4,1989,"cheese.png",1,1,0,"recon_trial","SS5",4,3,"pred","grocery store.png",1,1,"cheese.png",NA,NA,NA,NA,NA,NA,NA
"09/02/2021 22:25:34","09/02/2021 17:25:35",40999,4,3008743,"5f3c23cbcee6b3a3c4faff76","Firefox 85.0","retrieval_b4",3,"SS5",5,1438,"taco.png",1,1,0,"recon_trial","SS5",4,3,"pred","grocery store.png",2,4,"taco.png",NA,NA,NA,NA,NA,NA,NA
"09/02/2021 22:25:35","09/02/2021 17:25:36",40999,4,3008743,"5f3c23cbcee6b3a3c4faff76","Firefox 85.0","retrieval_b4",3,"SS5",6,1743,"walnuts.png",1,1,0,"recon_trial","SS5",4,3,"pred","grocery store.png",3,3,"walnuts.png",NA,NA,NA,NA,NA,NA,NA
"09/02/2021 22:25:37","09/02/2021 17:25:38",40999,4,3008743,"5f3c23cbcee6b3a3c4faff76","Firefox 85.0","retrieval_b4",3,"SS5",7,1381,"burrito.png",1,1,0,"recon_trial","SS5",4,3,"pred","grocery store.png",4,4,"burrito.png",NA,NA,NA,NA,NA,NA,NA
"09/02/2021 22:25:38","09/02/2021 17:25:39",40999,4,3008743,"5f3c23cbcee6b3a3c4faff76","Firefox 85.0","retrieval_b4",3,"SS5",8,1429,"cereal.png",1,1,0,"recon_trial","SS5",4,3,"pred","grocery store.png",5,2,"cereal.png",NA,NA,NA,NA,NA,NA,NA
"09/02/2021 22:25:40","09/02/2021 17:25:41",40999,4,3008743,"5f3c23cbcee6b3a3c4faff76","Firefox 85.0","retrieval_b4",3,"SS5",9,1401,"pizza.png",1,1,0,"recon_trial","SS5",4,3,"pred","grocery store.png",6,3,"pizza.png",NA,NA,NA,NA,NA,NA,NA
"09/02/2021 22:29:33","09/02/2021 17:29:34",40999,4,3008743,"5f3c23cbcee6b3a3c4faff76","Firefox 85.0","retrieval_b5",3,"SS5",11,6158,"hermitcrab.png",1,1,0,"recon_trial","SS5",5,4,"rand","pet store.png",1,3,"hermitcrab.png",NA,NA,NA,NA,NA,NA,NA
"09/02/2021 22:29:36","09/02/2021 17:29:37",40999,4,3008743,"5f3c23cbcee6b3a3c4faff76","Firefox 85.0","retrieval_b5",3,"SS5",12,3106,"cow.png",1,0,0,"recon_trial","SS5",5,4,"rand","pet store.png",2,4,"bloodhound.png",NA,NA,NA,NA,NA,NA,NA
"09/02/2021 22:29:37","09/02/2021 17:29:38",40999,4,3008743,"5f3c23cbcee6b3a3c4faff76","Firefox 85.0","retrieval_b5",3,"SS5",13,963,"bloodhound.png",1,0,0,"recon_trial","SS5",5,4,"rand","pet store.png",3,2,"cuttlefish.png",NA,NA,NA,NA,NA,NA,NA
"09/02/2021 22:29:38","09/02/2021 17:29:39",40999,4,3008743,"5f3c23cbcee6b3a3c4faff76","Firefox 85.0","retrieval_b5",3,"SS5",14,661,"cuttlefish.png",1,0,0,"recon_trial","SS5",5,4,"rand","pet store.png",4,1,"cow.png",NA,NA,NA,NA,NA,NA,NA
"09/02/2021 22:29:39","09/02/2021 17:29:40",40999,4,3008743,"5f3c23cbcee6b3a3c4faff76","Firefox 85.0","retrieval_b5",3,"SS5",15,754,"crow.png",1,1,0,"recon_trial","SS5",5,4,"rand","pet store.png",5,4,"crow.png",NA,NA,NA,NA,NA,NA,NA
"09/02/2021 22:29:39","09/02/2021 17:29:40",40999,4,3008743,"5f3c23cbcee6b3a3c4faff76","Firefox 85.0","retrieval_b5",3,"SS5",16,592,"rhino.png",1,1,0,"recon_trial","SS5",5,4,"rand","pet store.png",6,1,"rhino.png",NA,NA,NA,NA,NA,NA,NA
"09/02/2021 22:29:43","09/02/2021 17:29:44",40999,4,3008743,"5f3c23cbcee6b3a3c4faff76","Firefox 85.0","retrieval_b5",3,"SS5",4,2317,"dumplings.png",1,1,0,"recon_trial","SS5",5,2,"pred","grocery store.png",1,1,"dumplings.png",NA,NA,NA,NA,NA,NA,NA
"09/02/2021 22:29:45","09/02/2021 17:29:45",40999,4,3008743,"5f3c23cbcee6b3a3c4faff76","Firefox 85.0","retrieval_b5",3,"SS5",5,1583,"coconut.png",1,1,0,"recon_trial","SS5",5,2,"pred","grocery store.png",2,4,"coconut.png",NA,NA,NA,NA,NA,NA,NA
"09/02/2021 22:29:48","09/02/2021 17:29:49",40999,4,3008743,"5f3c23cbcee6b3a3c4faff76","Firefox 85.0","retrieval_b5",3,"SS5",6,3943,"apple.png",1,1,0,"recon_trial","SS5",5,2,"pred","grocery store.png",3,3,"apple.png",NA,NA,NA,NA,NA,NA,NA
"09/02/2021 22:29:49","09/02/2021 17:29:50",40999,4,3008743,"5f3c23cbcee6b3a3c4faff76","Firefox 85.0","retrieval_b5",3,"SS5",7,1079,"rice.png",1,1,0,"recon_trial","SS5",5,2,"pred","grocery store.png",4,4,"rice.png",NA,NA,NA,NA,NA,NA,NA
"09/02/2021 22:29:50","09/02/2021 17:29:51",40999,4,3008743,"5f3c23cbcee6b3a3c4faff76","Firefox 85.0","retrieval_b5",3,"SS5",8,808,"chocolatemilk.png",1,1,0,"recon_trial","SS5",5,2,"pred","grocery store.png",5,2,"chocolatemilk.png",NA,NA,NA,NA,NA,NA,NA
"09/02/2021 22:29:51","09/02/2021 17:29:52",40999,4,3008743,"5f3c23cbcee6b3a3c4faff76","Firefox 85.0","retrieval_b5",3,"SS5",9,874,"pancakes.png",1,1,0,"recon_trial","SS5",5,2,"pred","grocery store.png",6,3,"pancakes.png",NA,NA,NA,NA,NA,NA,NA
"09/02/2021 22:33:52","09/02/2021 17:33:53",40999,4,3008743,"5f3c23cbcee6b3a3c4faff76","Firefox 85.0","retrieval_b6",3,"SS5",11,2308,"ostrich.png",1,1,0,"recon_trial","SS5",6,3,"rand","pet store.png",1,4,"ostrich.png",NA,NA,NA,NA,NA,NA,NA
"09/02/2021 22:33:54","09/02/2021 17:33:54",40999,4,3008743,"5f3c23cbcee6b3a3c4faff76","Firefox 85.0","retrieval_b6",3,"SS5",12,1912,"goose.png",1,1,0,"recon_trial","SS5",6,3,"rand","pet store.png",2,2,"goose.png",NA,NA,NA,NA,NA,NA,NA
"09/02/2021 22:33:55","09/02/2021 17:33:56",40999,4,3008743,"5f3c23cbcee6b3a3c4faff76","Firefox 85.0","retrieval_b6",3,"SS5",13,1334,"emu.png",1,1,0,"recon_trial","SS5",6,3,"rand","pet store.png",3,3,"emu.png",NA,NA,NA,NA,NA,NA,NA
"09/02/2021 22:33:56","09/02/2021 17:33:57",40999,4,3008743,"5f3c23cbcee6b3a3c4faff76","Firefox 85.0","retrieval_b6",3,"SS5",14,1386,"walrus.png",1,1,0,"recon_trial","SS5",6,3,"rand","pet store.png",4,1,"walrus.png",NA,NA,NA,NA,NA,NA,NA
"09/02/2021 22:33:58","09/02/2021 17:33:59",40999,4,3008743,"5f3c23cbcee6b3a3c4faff76","Firefox 85.0","retrieval_b6",3,"SS5",15,1768,"tiger.png",1,1,0,"recon_trial","SS5",6,3,"rand","pet store.png",5,3,"tiger.png",NA,NA,NA,NA,NA,NA,NA
"09/02/2021 22:34:00","09/02/2021 17:34:00",40999,4,3008743,"5f3c23cbcee6b3a3c4faff76","Firefox 85.0","retrieval_b6",3,"SS5",16,1313,"platypus.png",1,1,0,"recon_trial","SS5",6,3,"rand","pet store.png",6,2,"platypus.png",NA,NA,NA,NA,NA,NA,NA
"09/02/2021 22:34:03","09/02/2021 17:34:04",40999,4,3008743,"5f3c23cbcee6b3a3c4faff76","Firefox 85.0","retrieval_b6",3,"SS5",4,2500,"cake.png",1,1,0,"recon_trial","SS5",6,4,"pred","grocery store.png",1,1,"cake.png",NA,NA,NA,NA,NA,NA,NA
"09/02/2021 22:34:05","09/02/2021 17:34:06",40999,4,3008743,"5f3c23cbcee6b3a3c4faff76","Firefox 85.0","retrieval_b6",3,"SS5",5,1735,"muffin.png",1,1,0,"recon_trial","SS5",6,4,"pred","grocery store.png",2,4,"muffin.png",NA,NA,NA,NA,NA,NA,NA
"09/02/2021 22:34:06","09/02/2021 17:34:07",40999,4,3008743,"5f3c23cbcee6b3a3c4faff76","Firefox 85.0","retrieval_b6",3,"SS5",6,1583,"pretzel.png",1,1,0,"recon_trial","SS5",6,4,"pred","grocery store.png",3,3,"pretzel.png",NA,NA,NA,NA,NA,NA,NA
"09/02/2021 22:34:08","09/02/2021 17:34:09",40999,4,3008743,"5f3c23cbcee6b3a3c4faff76","Firefox 85.0","retrieval_b6",3,"SS5",7,1415,"edamame.png",1,1,0,"recon_trial","SS5",6,4,"pred","grocery store.png",4,4,"edamame.png",NA,NA,NA,NA,NA,NA,NA
"09/02/2021 22:34:09","09/02/2021 17:34:10",40999,4,3008743,"5f3c23cbcee6b3a3c4faff76","Firefox 85.0","retrieval_b6",3,"SS5",8,1275,"salad.png",1,1,0,"recon_trial","SS5",6,4,"pred","grocery store.png",5,2,"salad.png",NA,NA,NA,NA,NA,NA,NA
"09/02/2021 22:34:11","09/02/2021 17:34:11",40999,4,3008743,"5f3c23cbcee6b3a3c4faff76","Firefox 85.0","retrieval_b6",3,"SS5",9,1450,"hummus.png",1,1,0,"recon_trial","SS5",6,4,"pred","grocery store.png",6,3,"hummus.png",NA,NA,NA,NA,NA,NA,NA
"09/02/2021 22:37:29","09/02/2021 17:37:30",40999,4,3008743,"5f3c23cbcee6b3a3c4faff76","Firefox 85.0","retrieval_b7",3,"SS5",4,2286,"bakedpotato.png",1,1,0,"recon_trial","SS5",7,3,"pred","grocery store.png",1,1,"bakedpotato.png",NA,NA,NA,NA,NA,NA,NA
"09/02/2021 22:37:30","09/02/2021 17:37:31",40999,4,3008743,"5f3c23cbcee6b3a3c4faff76","Firefox 85.0","retrieval_b7",3,"SS5",5,1346,"cinnamon.png",1,1,0,"recon_trial","SS5",7,3,"pred","grocery store.png",2,4,"cinnamon.png",NA,NA,NA,NA,NA,NA,NA
"09/02/2021 22:37:32","09/02/2021 17:37:33",40999,4,3008743,"5f3c23cbcee6b3a3c4faff76","Firefox 85.0","retrieval_b7",3,"SS5",6,1614,"chocolate.png",1,1,0,"recon_trial","SS5",7,3,"pred","grocery store.png",3,3,"chocolate.png",NA,NA,NA,NA,NA,NA,NA
"09/02/2021 22:37:33","09/02/2021 17:37:34",40999,4,3008743,"5f3c23cbcee6b3a3c4faff76","Firefox 85.0","retrieval_b7",3,"SS5",7,1564,"artichoke.png",1,1,0,"recon_trial","SS5",7,3,"pred","grocery store.png",4,4,"artichoke.png",NA,NA,NA,NA,NA,NA,NA
"09/02/2021 22:37:35","09/02/2021 17:37:36",40999,4,3008743,"5f3c23cbcee6b3a3c4faff76","Firefox 85.0","retrieval_b7",3,"SS5",8,1401,"cherries.png",1,1,0,"recon_trial","SS5",7,3,"pred","grocery store.png",5,2,"cherries.png",NA,NA,NA,NA,NA,NA,NA
"09/02/2021 22:37:36","09/02/2021 17:37:37",40999,4,3008743,"5f3c23cbcee6b3a3c4faff76","Firefox 85.0","retrieval_b7",3,"SS5",9,1338,"pork.png",1,1,0,"recon_trial","SS5",7,3,"pred","grocery store.png",6,3,"pork.png",NA,NA,NA,NA,NA,NA,NA
"09/02/2021 22:37:40","09/02/2021 17:37:41",40999,4,3008743,"5f3c23cbcee6b3a3c4faff76","Firefox 85.0","retrieval_b7",3,"SS5",11,2557,"koala.png",1,1,0,"recon_trial","SS5",7,4,"rand","pet store.png",1,3,"koala.png",NA,NA,NA,NA,NA,NA,NA
"09/02/2021 22:37:41","09/02/2021 17:37:42",40999,4,3008743,"5f3c23cbcee6b3a3c4faff76","Firefox 85.0","retrieval_b7",3,"SS5",12,1197,"grasshopper.png",1,1,0,"recon_trial","SS5",7,4,"rand","pet store.png",2,1,"grasshopper.png",NA,NA,NA,NA,NA,NA,NA
"09/02/2021 22:37:42","09/02/2021 17:37:43",40999,4,3008743,"5f3c23cbcee6b3a3c4faff76","Firefox 85.0","retrieval_b7",3,"SS5",13,1164,"kangaroo.png",1,1,0,"recon_trial","SS5",7,4,"rand","pet store.png",3,4,"kangaroo.png",NA,NA,NA,NA,NA,NA,NA
"09/02/2021 22:37:46","09/02/2021 17:37:47",40999,4,3008743,"5f3c23cbcee6b3a3c4faff76","Firefox 85.0","retrieval_b7",3,"SS5",14,3770,"surgeonfish.png",1,1,0,"recon_trial","SS5",7,4,"rand","pet store.png",4,2,"surgeonfish.png",NA,NA,NA,NA,NA,NA,NA
"09/02/2021 22:37:47","09/02/2021 17:37:48",40999,4,3008743,"5f3c23cbcee6b3a3c4faff76","Firefox 85.0","retrieval_b7",3,"SS5",15,1140,"tortoise.png",1,1,0,"recon_trial","SS5",7,4,"rand","pet store.png",5,4,"tortoise.png",NA,NA,NA,NA,NA,NA,NA
"09/02/2021 22:37:48","09/02/2021 17:37:49",40999,4,3008743,"5f3c23cbcee6b3a3c4faff76","Firefox 85.0","retrieval_b7",3,"SS5",16,1147,"butterfly.png",1,1,0,"recon_trial","SS5",7,4,"rand","pet store.png",6,1,"butterfly.png",NA,NA,NA,NA,NA,NA,NA
"09/02/2021 22:41:30","09/02/2021 17:41:31",40999,4,3008743,"5f3c23cbcee6b3a3c4faff76","Firefox 85.0","retrieval_b8",3,"SS5",4,2675,"celery.png",1,1,0,"recon_trial","SS5",8,4,"pred","grocery store.png",1,1,"celery.png",NA,NA,NA,NA,NA,NA,NA
"09/02/2021 22:41:33","09/02/2021 17:41:34",40999,4,3008743,"5f3c23cbcee6b3a3c4faff76","Firefox 85.0","retrieval_b8",3,"SS5",5,3426,"pie.png",1,1,0,"recon_trial","SS5",8,4,"pred","grocery store.png",2,4,"pie.png",NA,NA,NA,NA,NA,NA,NA
"09/02/2021 22:41:35","09/02/2021 17:41:36",40999,4,3008743,"5f3c23cbcee6b3a3c4faff76","Firefox 85.0","retrieval_b8",3,"SS5",6,2037,"cupcake.png",1,1,0,"recon_trial","SS5",8,4,"pred","grocery store.png",3,3,"cupcake.png",NA,NA,NA,NA,NA,NA,NA
"09/02/2021 22:41:37","09/02/2021 17:41:38",40999,4,3008743,"5f3c23cbcee6b3a3c4faff76","Firefox 85.0","retrieval_b8",3,"SS5",7,2069,"starfruit.png",1,0,0,"recon_trial","SS5",8,4,"pred","grocery store.png",4,4,"hotdog.png",NA,NA,NA,NA,NA,NA,NA
"09/02/2021 22:41:39","09/02/2021 17:41:40",40999,4,3008743,"5f3c23cbcee6b3a3c4faff76","Firefox 85.0","retrieval_b8",3,"SS5",8,1950,"hotdog.png",1,0,0,"recon_trial","SS5",8,4,"pred","grocery store.png",5,2,"starfruit.png",NA,NA,NA,NA,NA,NA,NA
"09/02/2021 22:41:41","09/02/2021 17:41:42",40999,4,3008743,"5f3c23cbcee6b3a3c4faff76","Firefox 85.0","retrieval_b8",3,"SS5",9,1773,"raspberries.png",1,1,0,"recon_trial","SS5",8,4,"pred","grocery store.png",6,3,"raspberries.png",NA,NA,NA,NA,NA,NA,NA
"09/02/2021 22:41:44","09/02/2021 17:41:45",40999,4,3008743,"5f3c23cbcee6b3a3c4faff76","Firefox 85.0","retrieval_b8",3,"SS5",11,2320,"toucan.png",1,1,0,"recon_trial","SS5",8,2,"rand","pet store.png",1,3,"toucan.png",NA,NA,NA,NA,NA,NA,NA
"09/02/2021 22:41:47","09/02/2021 17:41:48",40999,4,3008743,"5f3c23cbcee6b3a3c4faff76","Firefox 85.0","retrieval_b8",3,"SS5",12,2550,"pangolin.png",1,1,0,"recon_trial","SS5",8,2,"rand","pet store.png",2,4,"pangolin.png",NA,NA,NA,NA,NA,NA,NA
"09/02/2021 22:41:48","09/02/2021 17:41:49",40999,4,3008743,"5f3c23cbcee6b3a3c4faff76","Firefox 85.0","retrieval_b8",3,"SS5",13,1479,"chimp.png",1,1,0,"recon_trial","SS5",8,2,"rand","pet store.png",3,2,"chimp.png",NA,NA,NA,NA,NA,NA,NA
"09/02/2021 22:41:51","09/02/2021 17:41:51",40999,4,3008743,"5f3c23cbcee6b3a3c4faff76","Firefox 85.0","retrieval_b8",3,"SS5",14,2072,"goat.png",1,1,0,"recon_trial","SS5",8,2,"rand","pet store.png",4,4,"goat.png",NA,NA,NA,NA,NA,NA,NA
"09/02/2021 22:41:52","09/02/2021 17:41:53",40999,4,3008743,"5f3c23cbcee6b3a3c4faff76","Firefox 85.0","retrieval_b8",3,"SS5",15,1573,"penguin.png",1,1,0,"recon_trial","SS5",8,2,"rand","pet store.png",5,1,"penguin.png",NA,NA,NA,NA,NA,NA,NA
"09/02/2021 22:41:54","09/02/2021 17:41:55",40999,4,3008743,"5f3c23cbcee6b3a3c4faff76","Firefox 85.0","retrieval_b8",3,"SS5",16,1902,"goldenretriever.png",1,1,0,"recon_trial","SS5",8,2,"rand","pet store.png",6,2,"goldenretriever.png",NA,NA,NA,NA,NA,NA,NA
"09/02/2021 22:13:15","09/02/2021 17:13:13",40999,4,3008809,"5ec771e68288e91bf1919096","Firefox 85.0","retrieval_b1",4,"SS3",11,4183,"snail.png",1,1,0,"recon_trial","SS3",1,4,"rand","pet store.png",1,2,"snail.png",NA,NA,NA,NA,NA,NA,NA
"09/02/2021 22:13:18","09/02/2021 17:13:16",40999,4,3008809,"5ec771e68288e91bf1919096","Firefox 85.0","retrieval_b1",4,"SS3",12,3068,"hummingbird.png",1,1,0,"recon_trial","SS3",1,4,"rand","pet store.png",2,3,"hummingbird.png",NA,NA,NA,NA,NA,NA,NA
"09/02/2021 22:13:21","09/02/2021 17:13:19",40999,4,3008809,"5ec771e68288e91bf1919096","Firefox 85.0","retrieval_b1",4,"SS3",13,3155,"panda.png",1,1,0,"recon_trial","SS3",1,4,"rand","pet store.png",3,1,"panda.png",NA,NA,NA,NA,NA,NA,NA
"09/02/2021 22:13:27","09/02/2021 17:13:25",40999,4,3008809,"5ec771e68288e91bf1919096","Firefox 85.0","retrieval_b1",4,"SS3",14,6136,"stingray.png",1,1,0,"recon_trial","SS3",1,4,"rand","pet store.png",4,3,"stingray.png",NA,NA,NA,NA,NA,NA,NA
"09/02/2021 22:13:28","09/02/2021 17:13:26",40999,4,3008809,"5ec771e68288e91bf1919096","Firefox 85.0","retrieval_b1",4,"SS3",15,1040,"sheep.png",1,1,0,"recon_trial","SS3",1,4,"rand","pet store.png",5,4,"sheep.png",NA,NA,NA,NA,NA,NA,NA
"09/02/2021 22:13:29","09/02/2021 17:13:27",40999,4,3008809,"5ec771e68288e91bf1919096","Firefox 85.0","retrieval_b1",4,"SS3",16,797,"crab.png",1,1,0,"recon_trial","SS3",1,4,"rand","pet store.png",6,1,"crab.png",NA,NA,NA,NA,NA,NA,NA
"09/02/2021 22:13:36","09/02/2021 17:13:34",40999,4,3008809,"5ec771e68288e91bf1919096","Firefox 85.0","retrieval_b1",4,"SS3",4,6329,"rice.png",1,1,0,"recon_trial","SS3",1,3,"pred","grocery store.png",1,3,"rice.png",NA,NA,NA,NA,NA,NA,NA
"09/02/2021 22:13:38","09/02/2021 17:13:36",40999,4,3008809,"5ec771e68288e91bf1919096","Firefox 85.0","retrieval_b1",4,"SS3",5,1185,"coconut.png",1,1,0,"recon_trial","SS3",1,3,"pred","grocery store.png",2,2,"coconut.png",NA,NA,NA,NA,NA,NA,NA
"09/02/2021 22:13:42","09/02/2021 17:13:40",40999,4,3008809,"5ec771e68288e91bf1919096","Firefox 85.0","retrieval_b1",4,"SS3",6,4224,"granola.png",1,1,0,"recon_trial","SS3",1,3,"pred","grocery store.png",3,4,"granola.png",NA,NA,NA,NA,NA,NA,NA
"09/02/2021 22:13:45","09/02/2021 17:13:43",40999,4,3008809,"5ec771e68288e91bf1919096","Firefox 85.0","retrieval_b1",4,"SS3",7,3540,"burrito.png",1,1,0,"recon_trial","SS3",1,3,"pred","grocery store.png",4,2,"burrito.png",NA,NA,NA,NA,NA,NA,NA
"09/02/2021 22:13:46","09/02/2021 17:13:44",40999,4,3008809,"5ec771e68288e91bf1919096","Firefox 85.0","retrieval_b1",4,"SS3",8,887,"pancakes.png",1,1,0,"recon_trial","SS3",1,3,"pred","grocery store.png",5,1,"pancakes.png",NA,NA,NA,NA,NA,NA,NA
"09/02/2021 22:13:47","09/02/2021 17:13:45",40999,4,3008809,"5ec771e68288e91bf1919096","Firefox 85.0","retrieval_b1",4,"SS3",9,656,"cupnoodle.png",1,1,0,"recon_trial","SS3",1,3,"pred","grocery store.png",6,4,"cupnoodle.png",NA,NA,NA,NA,NA,NA,NA
"09/02/2021 22:17:21","09/02/2021 17:17:19",40999,4,3008809,"5ec771e68288e91bf1919096","Firefox 85.0","retrieval_b2",3,"SS3",4,2415,"peanutbutter.png",1,1,0,"recon_trial","SS3",2,2,"pred","grocery store.png",1,3,"peanutbutter.png",NA,NA,NA,NA,NA,NA,NA
"09/02/2021 22:17:26","09/02/2021 17:17:24",40999,4,3008809,"5ec771e68288e91bf1919096","Firefox 85.0","retrieval_b2",3,"SS3",5,5325,"coffee.png",1,0,0,"recon_trial","SS3",2,2,"pred","grocery store.png",2,2,"tomato.png",NA,NA,NA,NA,NA,NA,NA
"09/02/2021 22:17:27","09/02/2021 17:17:25",40999,4,3008809,"5ec771e68288e91bf1919096","Firefox 85.0","retrieval_b2",3,"SS3",6,1411,"tomato.png",1,0,0,"recon_trial","SS3",2,2,"pred","grocery store.png",3,4,"kiwi.png",NA,NA,NA,NA,NA,NA,NA
"09/02/2021 22:17:32","09/02/2021 17:17:30",40999,4,3008809,"5ec771e68288e91bf1919096","Firefox 85.0","retrieval_b2",3,"SS3",7,4203,"basil.png",1,0,0,"recon_trial","SS3",2,2,"pred","grocery store.png",4,2,"coffee.png",NA,NA,NA,NA,NA,NA,NA
"09/02/2021 22:17:32","09/02/2021 17:17:30",40999,4,3008809,"5ec771e68288e91bf1919096","Firefox 85.0","retrieval_b2",3,"SS3",8,655,"kiwi.png",1,0,0,"recon_trial","SS3",2,2,"pred","grocery store.png",5,1,"basil.png",NA,NA,NA,NA,NA,NA,NA
"09/02/2021 22:17:33","09/02/2021 17:17:31",40999,4,3008809,"5ec771e68288e91bf1919096","Firefox 85.0","retrieval_b2",3,"SS3",9,764,"fortunecookie.png",1,1,0,"recon_trial","SS3",2,2,"pred","grocery store.png",6,4,"fortunecookie.png",NA,NA,NA,NA,NA,NA,NA
"09/02/2021 22:17:37","09/02/2021 17:17:35",40999,4,3008809,"5ec771e68288e91bf1919096","Firefox 85.0","retrieval_b2",3,"SS3",11,2566,"killerwhale.png",1,1,0,"recon_trial","SS3",2,1,"rand","pet store.png",1,2,"killerwhale.png",NA,NA,NA,NA,NA,NA,NA
"09/02/2021 22:17:42","09/02/2021 17:17:40",40999,4,3008809,"5ec771e68288e91bf1919096","Firefox 85.0","retrieval_b2",3,"SS3",12,5101,"bison.png",1,1,0,"recon_trial","SS3",2,1,"rand","pet store.png",2,1,"bison.png",NA,NA,NA,NA,NA,NA,NA
"09/02/2021 22:17:46","09/02/2021 17:17:44",40999,4,3008809,"5ec771e68288e91bf1919096","Firefox 85.0","retrieval_b2",3,"SS3",13,3773,"walrus.png",1,1,0,"recon_trial","SS3",2,1,"rand","pet store.png",3,4,"walrus.png",NA,NA,NA,NA,NA,NA,NA
"09/02/2021 22:17:49","09/02/2021 17:17:47",40999,4,3008809,"5ec771e68288e91bf1919096","Firefox 85.0","retrieval_b2",3,"SS3",14,2765,"hedgehog.png",1,0,0,"recon_trial","SS3",2,1,"rand","pet store.png",4,3,"horse.png",NA,NA,NA,NA,NA,NA,NA
"09/02/2021 22:17:49","09/02/2021 17:17:47",40999,4,3008809,"5ec771e68288e91bf1919096","Firefox 85.0","retrieval_b2",3,"SS3",15,528,"ostrich.png",1,0,0,"recon_trial","SS3",2,1,"rand","pet store.png",5,1,"hedgehog.png",NA,NA,NA,NA,NA,NA,NA
"09/02/2021 22:17:50","09/02/2021 17:17:48",40999,4,3008809,"5ec771e68288e91bf1919096","Firefox 85.0","retrieval_b2",3,"SS3",16,852,"horse.png",1,0,0,"recon_trial","SS3",2,1,"rand","pet store.png",6,3,"ostrich.png",NA,NA,NA,NA,NA,NA,NA
"09/02/2021 22:21:06","09/02/2021 17:21:04",40999,4,3008809,"5ec771e68288e91bf1919096","Firefox 85.0","retrieval_b3",3,"SS3",11,4903,"dolphin.png",1,1,0,"recon_trial","SS3",3,3,"rand","pet store.png",1,2,"dolphin.png",NA,NA,NA,NA,NA,NA,NA
"09/02/2021 22:21:10","09/02/2021 17:21:08",40999,4,3008809,"5ec771e68288e91bf1919096","Firefox 85.0","retrieval_b3",3,"SS3",12,3291,"camel.png",1,1,0,"recon_trial","SS3",3,3,"rand","pet store.png",2,3,"camel.png",NA,NA,NA,NA,NA,NA,NA
"09/02/2021 22:21:18","09/02/2021 17:21:16",40999,4,3008809,"5ec771e68288e91bf1919096","Firefox 85.0","retrieval_b3",3,"SS3",13,7973,"lemur.png",1,0,0,"recon_trial","SS3",3,3,"rand","pet store.png",3,1,"ladybug.png",NA,NA,NA,NA,NA,NA,NA
"09/02/2021 22:21:19","09/02/2021 17:21:17",40999,4,3008809,"5ec771e68288e91bf1919096","Firefox 85.0","retrieval_b3",3,"SS3",14,1388,"ladybug.png",1,0,0,"recon_trial","SS3",3,3,"rand","pet store.png",4,4,"lemur.png",NA,NA,NA,NA,NA,NA,NA
"09/02/2021 22:21:22","09/02/2021 17:21:20",40999,4,3008809,"5ec771e68288e91bf1919096","Firefox 85.0","retrieval_b3",3,"SS3",15,2655,"flamingo.png",1,0,0,"recon_trial","SS3",3,3,"rand","pet store.png",5,1,"koala.png",NA,NA,NA,NA,NA,NA,NA
"09/02/2021 22:21:22","09/02/2021 17:21:21",40999,4,3008809,"5ec771e68288e91bf1919096","Firefox 85.0","retrieval_b3",3,"SS3",16,714,"koala.png",1,0,0,"recon_trial","SS3",3,3,"rand","pet store.png",6,3,"flamingo.png",NA,NA,NA,NA,NA,NA,NA
"09/02/2021 22:21:32","09/02/2021 17:21:30",40999,4,3008809,"5ec771e68288e91bf1919096","Firefox 85.0","retrieval_b3",3,"SS3",4,4408,"mustard.png",1,1,0,"recon_trial","SS3",3,1,"pred","grocery store.png",1,3,"mustard.png",NA,NA,NA,NA,NA,NA,NA
"09/02/2021 22:21:37","09/02/2021 17:21:35",40999,4,3008809,"5ec771e68288e91bf1919096","Firefox 85.0","retrieval_b3",3,"SS3",5,4691,"acaibowl.png",1,1,0,"recon_trial","SS3",3,1,"pred","grocery store.png",2,2,"acaibowl.png",NA,NA,NA,NA,NA,NA,NA
"09/02/2021 22:21:39","09/02/2021 17:21:37",40999,4,3008809,"5ec771e68288e91bf1919096","Firefox 85.0","retrieval_b3",3,"SS3",6,1498,"clams.png",1,1,0,"recon_trial","SS3",3,1,"pred","grocery store.png",3,4,"clams.png",NA,NA,NA,NA,NA,NA,NA
"09/02/2021 22:21:42","09/02/2021 17:21:40",40999,4,3008809,"5ec771e68288e91bf1919096","Firefox 85.0","retrieval_b3",3,"SS3",7,3300,"soup.png",1,0,0,"recon_trial","SS3",3,1,"pred","grocery store.png",4,2,"egg.png",NA,NA,NA,NA,NA,NA,NA
"09/02/2021 22:21:43","09/02/2021 17:21:41",40999,4,3008809,"5ec771e68288e91bf1919096","Firefox 85.0","retrieval_b3",3,"SS3",8,676,"muffin.png",1,0,0,"recon_trial","SS3",3,1,"pred","grocery store.png",5,1,"soup.png",NA,NA,NA,NA,NA,NA,NA
"09/02/2021 22:21:43","09/02/2021 17:21:41",40999,4,3008809,"5ec771e68288e91bf1919096","Firefox 85.0","retrieval_b3",3,"SS3",9,633,"egg.png",1,0,0,"recon_trial","SS3",3,1,"pred","grocery store.png",6,4,"muffin.png",NA,NA,NA,NA,NA,NA,NA
"09/02/2021 22:25:04","09/02/2021 17:25:02",40999,4,3008809,"5ec771e68288e91bf1919096","Firefox 85.0","retrieval_b4",3,"SS3",11,3441,"vulture.png",1,1,0,"recon_trial","SS3",4,2,"rand","pet store.png",1,4,"vulture.png",NA,NA,NA,NA,NA,NA,NA
"09/02/2021 22:25:14","09/02/2021 17:25:12",40999,4,3008809,"5ec771e68288e91bf1919096","Firefox 85.0","retrieval_b4",3,"SS3",12,9586,"armadillo.png",1,1,0,"recon_trial","SS3",4,2,"rand","pet store.png",2,2,"armadillo.png",NA,NA,NA,NA,NA,NA,NA
"09/02/2021 22:25:16","09/02/2021 17:25:15",40999,4,3008809,"5ec771e68288e91bf1919096","Firefox 85.0","retrieval_b4",3,"SS3",13,2634,"caterpillar.png",1,1,0,"recon_trial","SS3",4,2,"rand","pet store.png",3,3,"caterpillar.png",NA,NA,NA,NA,NA,NA,NA
"09/02/2021 22:25:17","09/02/2021 17:25:15",40999,4,3008809,"5ec771e68288e91bf1919096","Firefox 85.0","retrieval_b4",3,"SS3",14,762,"iguana.png",1,0,0,"recon_trial","SS3",4,2,"rand","pet store.png",4,1,"butterfly.png",NA,NA,NA,NA,NA,NA,NA
"09/02/2021 22:25:19","09/02/2021 17:25:17",40999,4,3008809,"5ec771e68288e91bf1919096","Firefox 85.0","retrieval_b4",3,"SS3",15,2013,"butterfly.png",1,0,0,"recon_trial","SS3",4,2,"rand","pet store.png",5,3,"octopus.png",NA,NA,NA,NA,NA,NA,NA
"09/02/2021 22:25:20","09/02/2021 17:25:18",40999,4,3008809,"5ec771e68288e91bf1919096","Firefox 85.0","retrieval_b4",3,"SS3",16,564,"octopus.png",1,0,0,"recon_trial","SS3",4,2,"rand","pet store.png",6,2,"iguana.png",NA,NA,NA,NA,NA,NA,NA
"09/02/2021 22:25:25","09/02/2021 17:25:23",40999,4,3008809,"5ec771e68288e91bf1919096","Firefox 85.0","retrieval_b4",3,"SS3",4,4283,"popcornshrimp.png",1,1,0,"recon_trial","SS3",4,1,"pred","grocery store.png",1,3,"popcornshrimp.png",NA,NA,NA,NA,NA,NA,NA
"09/02/2021 22:25:27","09/02/2021 17:25:25",40999,4,3008809,"5ec771e68288e91bf1919096","Firefox 85.0","retrieval_b4",3,"SS3",5,1283,"cheese.png",1,1,0,"recon_trial","SS3",4,1,"pred","grocery store.png",2,2,"cheese.png",NA,NA,NA,NA,NA,NA,NA
"09/02/2021 22:25:34","09/02/2021 17:25:32",40999,4,3008809,"5ec771e68288e91bf1919096","Firefox 85.0","retrieval_b4",3,"SS3",6,7056,"waffle.png",1,0,0,"recon_trial","SS3",4,1,"pred","grocery store.png",3,4,"walnuts.png",NA,NA,NA,NA,NA,NA,NA
"09/02/2021 22:25:34","09/02/2021 17:25:32",40999,4,3008809,"5ec771e68288e91bf1919096","Firefox 85.0","retrieval_b4",3,"SS3",7,786,"walnuts.png",1,0,0,"recon_trial","SS3",4,1,"pred","grocery store.png",4,2,"donut.png",NA,NA,NA,NA,NA,NA,NA
"09/02/2021 22:25:35","09/02/2021 17:25:33",40999,4,3008809,"5ec771e68288e91bf1919096","Firefox 85.0","retrieval_b4",3,"SS3",8,495,"donut.png",1,0,0,"recon_trial","SS3",4,1,"pred","grocery store.png",5,1,"waffle.png",NA,NA,NA,NA,NA,NA,NA
"09/02/2021 22:25:35","09/02/2021 17:25:33",40999,4,3008809,"5ec771e68288e91bf1919096","Firefox 85.0","retrieval_b4",3,"SS3",9,427,"lychee.png",1,1,0,"recon_trial","SS3",4,1,"pred","grocery store.png",6,4,"lychee.png",NA,NA,NA,NA,NA,NA,NA
"09/02/2021 22:29:07","09/02/2021 17:29:05",40999,4,3008809,"5ec771e68288e91bf1919096","Firefox 85.0","retrieval_b5",3,"SS3",11,10355,"bat.png",1,1,0,"recon_trial","SS3",5,1,"rand","pet store.png",1,2,"bat.png",NA,NA,NA,NA,NA,NA,NA
"09/02/2021 22:29:08","09/02/2021 17:29:06",40999,4,3008809,"5ec771e68288e91bf1919096","Firefox 85.0","retrieval_b5",3,"SS3",12,1236,"cheetah.png",1,1,0,"recon_trial","SS3",5,1,"rand","pet store.png",2,3,"cheetah.png",NA,NA,NA,NA,NA,NA,NA
"09/02/2021 22:29:09","09/02/2021 17:29:07",40999,4,3008809,"5ec771e68288e91bf1919096","Firefox 85.0","retrieval_b5",3,"SS3",13,792,"chameleon.png",1,1,0,"recon_trial","SS3",5,1,"rand","pet store.png",3,1,"chameleon.png",NA,NA,NA,NA,NA,NA,NA
"09/02/2021 22:29:10","09/02/2021 17:29:08",40999,4,3008809,"5ec771e68288e91bf1919096","Firefox 85.0","retrieval_b5",3,"SS3",14,817,"frog.png",1,1,0,"recon_trial","SS3",5,1,"rand","pet store.png",4,4,"frog.png",NA,NA,NA,NA,NA,NA,NA
"09/02/2021 22:29:11","09/02/2021 17:29:09",40999,4,3008809,"5ec771e68288e91bf1919096","Firefox 85.0","retrieval_b5",3,"SS3",15,1030,"parrot.png",1,1,0,"recon_trial","SS3",5,1,"rand","pet store.png",5,3,"parrot.png",NA,NA,NA,NA,NA,NA,NA
"09/02/2021 22:29:11","09/02/2021 17:29:09",40999,4,3008809,"5ec771e68288e91bf1919096","Firefox 85.0","retrieval_b5",3,"SS3",16,590,"pug.png",1,1,0,"recon_trial","SS3",5,1,"rand","pet store.png",6,4,"pug.png",NA,NA,NA,NA,NA,NA,NA
"09/02/2021 22:29:22","09/02/2021 17:29:20",40999,4,3008809,"5ec771e68288e91bf1919096","Firefox 85.0","retrieval_b5",3,"SS3",4,9442,"strawberries.png",1,1,0,"recon_trial","SS3",5,3,"pred","grocery store.png",1,3,"strawberries.png",NA,NA,NA,NA,NA,NA,NA
"09/02/2021 22:29:23","09/02/2021 17:29:21",40999,4,3008809,"5ec771e68288e91bf1919096","Firefox 85.0","retrieval_b5",3,"SS3",5,1068,"brusselsprouts.png",1,1,0,"recon_trial","SS3",5,3,"pred","grocery store.png",2,2,"brusselsprouts.png",NA,NA,NA,NA,NA,NA,NA
"09/02/2021 22:29:25","09/02/2021 17:29:23",40999,4,3008809,"5ec771e68288e91bf1919096","Firefox 85.0","retrieval_b5",3,"SS3",6,1760,"lemon.png",1,1,0,"recon_trial","SS3",5,3,"pred","grocery store.png",3,4,"lemon.png",NA,NA,NA,NA,NA,NA,NA
"09/02/2021 22:29:28","09/02/2021 17:29:26",40999,4,3008809,"5ec771e68288e91bf1919096","Firefox 85.0","retrieval_b5",3,"SS3",7,3431,"acornsquash.png",1,1,0,"recon_trial","SS3",5,3,"pred","grocery store.png",4,2,"acornsquash.png",NA,NA,NA,NA,NA,NA,NA
"09/02/2021 22:29:29","09/02/2021 17:29:27",40999,4,3008809,"5ec771e68288e91bf1919096","Firefox 85.0","retrieval_b5",3,"SS3",8,518,"celery.png",1,1,0,"recon_trial","SS3",5,3,"pred","grocery store.png",5,1,"celery.png",NA,NA,NA,NA,NA,NA,NA
"09/02/2021 22:29:29","09/02/2021 17:29:27",40999,4,3008809,"5ec771e68288e91bf1919096","Firefox 85.0","retrieval_b5",3,"SS3",9,606,"seaweed.png",1,1,0,"recon_trial","SS3",5,3,"pred","grocery store.png",6,4,"seaweed.png",NA,NA,NA,NA,NA,NA,NA
"09/02/2021 22:32:49","09/02/2021 17:32:47",40999,4,3008809,"5ec771e68288e91bf1919096","Firefox 85.0","retrieval_b6",3,"SS3",4,2641,"onion.png",1,1,0,"recon_trial","SS3",6,4,"pred","grocery store.png",1,3,"onion.png",NA,NA,NA,NA,NA,NA,NA
"09/02/2021 22:32:52","09/02/2021 17:32:50",40999,4,3008809,"5ec771e68288e91bf1919096","Firefox 85.0","retrieval_b6",3,"SS3",5,2947,"bread.png",1,1,0,"recon_trial","SS3",6,4,"pred","grocery store.png",2,2,"bread.png",NA,NA,NA,NA,NA,NA,NA
"09/02/2021 22:32:53","09/02/2021 17:32:51",40999,4,3008809,"5ec771e68288e91bf1919096","Firefox 85.0","retrieval_b6",3,"SS3",6,1167,"blackpepper.png",1,1,0,"recon_trial","SS3",6,4,"pred","grocery store.png",3,4,"blackpepper.png",NA,NA,NA,NA,NA,NA,NA
"09/02/2021 22:32:55","09/02/2021 17:32:53",40999,4,3008809,"5ec771e68288e91bf1919096","Firefox 85.0","retrieval_b6",3,"SS3",7,1466,"cake.png",1,1,0,"recon_trial","SS3",6,4,"pred","grocery store.png",4,2,"cake.png",NA,NA,NA,NA,NA,NA,NA
"09/02/2021 22:32:56","09/02/2021 17:32:54",40999,4,3008809,"5ec771e68288e91bf1919096","Firefox 85.0","retrieval_b6",3,"SS3",8,961,"bacon.png",1,1,0,"recon_trial","SS3",6,4,"pred","grocery store.png",5,1,"bacon.png",NA,NA,NA,NA,NA,NA,NA
"09/02/2021 22:32:56","09/02/2021 17:32:54",40999,4,3008809,"5ec771e68288e91bf1919096","Firefox 85.0","retrieval_b6",3,"SS3",9,683,"caramelapple.png",1,1,0,"recon_trial","SS3",6,4,"pred","grocery store.png",6,4,"caramelapple.png",NA,NA,NA,NA,NA,NA,NA
"09/02/2021 22:33:01","09/02/2021 17:32:59",40999,4,3008809,"5ec771e68288e91bf1919096","Firefox 85.0","retrieval_b6",3,"SS3",11,2053,"bettafish.png",1,1,0,"recon_trial","SS3",6,3,"rand","pet store.png",1,2,"bettafish.png",NA,NA,NA,NA,NA,NA,NA
"09/02/2021 22:33:02","09/02/2021 17:33:00",40999,4,3008809,"5ec771e68288e91bf1919096","Firefox 85.0","retrieval_b6",3,"SS3",12,691,"surgeonfish.png",1,1,0,"recon_trial","SS3",6,3,"rand","pet store.png",2,1,"surgeonfish.png",NA,NA,NA,NA,NA,NA,NA
"09/02/2021 22:33:03","09/02/2021 17:33:01",40999,4,3008809,"5ec771e68288e91bf1919096","Firefox 85.0","retrieval_b6",3,"SS3",13,1055,"owl.png",1,1,0,"recon_trial","SS3",6,3,"rand","pet store.png",3,3,"owl.png",NA,NA,NA,NA,NA,NA,NA
"09/02/2021 22:33:09","09/02/2021 17:33:07",40999,4,3008809,"5ec771e68288e91bf1919096","Firefox 85.0","retrieval_b6",3,"SS3",14,6004,"panther.png",1,0,0,"recon_trial","SS3",6,3,"rand","pet store.png",4,1,"lion.png",NA,NA,NA,NA,NA,NA,NA
"09/02/2021 22:33:10","09/02/2021 17:33:08",40999,4,3008809,"5ec771e68288e91bf1919096","Firefox 85.0","retrieval_b6",3,"SS3",15,573,"lion.png",1,0,0,"recon_trial","SS3",6,3,"rand","pet store.png",5,4,"panther.png",NA,NA,NA,NA,NA,NA,NA
"09/02/2021 22:33:10","09/02/2021 17:33:08",40999,4,3008809,"5ec771e68288e91bf1919096","Firefox 85.0","retrieval_b6",3,"SS3",16,695,"gorilla.png",1,1,0,"recon_trial","SS3",6,3,"rand","pet store.png",6,3,"gorilla.png",NA,NA,NA,NA,NA,NA,NA
"09/02/2021 22:36:31","09/02/2021 17:36:29",40999,4,3008809,"5ec771e68288e91bf1919096","Firefox 85.0","retrieval_b7",3,"SS3",11,10660,"penguin.png",1,0,0,"recon_trial","SS3",7,4,"rand","pet store.png",1,4,"mantis.png",NA,NA,NA,NA,NA,NA,NA
"09/02/2021 22:36:32","09/02/2021 17:36:31",40999,4,3008809,"5ec771e68288e91bf1919096","Firefox 85.0","retrieval_b7",3,"SS3",12,1306,"tiger.png",1,1,0,"recon_trial","SS3",7,4,"rand","pet store.png",2,3,"tiger.png",NA,NA,NA,NA,NA,NA,NA
"09/02/2021 22:36:34","09/02/2021 17:36:32",40999,4,3008809,"5ec771e68288e91bf1919096","Firefox 85.0","retrieval_b7",3,"SS3",13,1710,"mantis.png",1,0,0,"recon_trial","SS3",7,4,"rand","pet store.png",3,1,"donkey.png",NA,NA,NA,NA,NA,NA,NA
"09/02/2021 22:36:45","09/02/2021 17:36:43",40999,4,3008809,"5ec771e68288e91bf1919096","Firefox 85.0","retrieval_b7",3,"SS3",14,10518,"goldenretriever.png",1,1,0,"recon_trial","SS3",7,4,"rand","pet store.png",4,2,"goldenretriever.png",NA,NA,NA,NA,NA,NA,NA
"09/02/2021 22:36:46","09/02/2021 17:36:44",40999,4,3008809,"5ec771e68288e91bf1919096","Firefox 85.0","retrieval_b7",3,"SS3",15,1229,"grasshopper.png",1,0,0,"recon_trial","SS3",7,4,"rand","pet store.png",5,1,"penguin.png",NA,NA,NA,NA,NA,NA,NA
"09/02/2021 22:36:46","09/02/2021 17:36:44",40999,4,3008809,"5ec771e68288e91bf1919096","Firefox 85.0","retrieval_b7",3,"SS3",16,346,"donkey.png",1,0,0,"recon_trial","SS3",7,4,"rand","pet store.png",6,3,"grasshopper.png",NA,NA,NA,NA,NA,NA,NA
"09/02/2021 22:36:56","09/02/2021 17:36:54",40999,4,3008809,"5ec771e68288e91bf1919096","Firefox 85.0","retrieval_b7",3,"SS3",4,7609,"cherries.png",1,0,0,"recon_trial","SS3",7,2,"pred","grocery store.png",1,3,"pomegranate.png",NA,NA,NA,NA,NA,NA,NA
"09/02/2021 22:37:00","09/02/2021 17:36:58",40999,4,3008809,"5ec771e68288e91bf1919096","Firefox 85.0","retrieval_b7",3,"SS3",5,3868,"pomegranate.png",1,0,0,"recon_trial","SS3",7,2,"pred","grocery store.png",2,2,"cherries.png",NA,NA,NA,NA,NA,NA,NA
"09/02/2021 22:37:01","09/02/2021 17:36:59",40999,4,3008809,"5ec771e68288e91bf1919096","Firefox 85.0","retrieval_b7",3,"SS3",6,1633,"poutine.png",1,1,0,"recon_trial","SS3",7,2,"pred","grocery store.png",3,4,"poutine.png",NA,NA,NA,NA,NA,NA,NA
"09/02/2021 22:37:05","09/02/2021 17:37:03",40999,4,3008809,"5ec771e68288e91bf1919096","Firefox 85.0","retrieval_b7",3,"SS3",7,3793,"salad.png",1,1,0,"recon_trial","SS3",7,2,"pred","grocery store.png",4,2,"salad.png",NA,NA,NA,NA,NA,NA,NA
"09/02/2021 22:37:09","09/02/2021 17:37:07",40999,4,3008809,"5ec771e68288e91bf1919096","Firefox 85.0","retrieval_b7",3,"SS3",8,3694,"beet.png",1,0,0,"recon_trial","SS3",7,2,"pred","grocery store.png",5,1,"pork.png",NA,NA,NA,NA,NA,NA,NA
"09/02/2021 22:37:09","09/02/2021 17:37:07",40999,4,3008809,"5ec771e68288e91bf1919096","Firefox 85.0","retrieval_b7",3,"SS3",9,397,"pork.png",1,0,0,"recon_trial","SS3",7,2,"pred","grocery store.png",6,4,"beet.png",NA,NA,NA,NA,NA,NA,NA
"09/02/2021 22:40:24","09/02/2021 17:40:22",40999,4,3008809,"5ec771e68288e91bf1919096","Firefox 85.0","retrieval_b8",3,"SS3",4,6094,"pretzel.png",1,1,0,"recon_trial","SS3",8,4,"pred","grocery store.png",1,3,"pretzel.png",NA,NA,NA,NA,NA,NA,NA
"09/02/2021 22:40:33","09/02/2021 17:40:31",40999,4,3008809,"5ec771e68288e91bf1919096","Firefox 85.0","retrieval_b8",3,"SS3",5,9757,"cookedchicken.png",1,1,0,"recon_trial","SS3",8,4,"pred","grocery store.png",2,2,"cookedchicken.png",NA,NA,NA,NA,NA,NA,NA
"09/02/2021 22:40:40","09/02/2021 17:40:38",40999,4,3008809,"5ec771e68288e91bf1919096","Firefox 85.0","retrieval_b8",3,"SS3",6,6543,"burger.png",1,0,0,"recon_trial","SS3",8,4,"pred","grocery store.png",3,4,"milk.png",NA,NA,NA,NA,NA,NA,NA
"09/02/2021 22:40:44","09/02/2021 17:40:42",40999,4,3008809,"5ec771e68288e91bf1919096","Firefox 85.0","retrieval_b8",3,"SS3",7,4432,"milk.png",1,0,0,"recon_trial","SS3",8,4,"pred","grocery store.png",4,2,"burger.png",NA,NA,NA,NA,NA,NA,NA
"09/02/2021 22:40:45","09/02/2021 17:40:43",40999,4,3008809,"5ec771e68288e91bf1919096","Firefox 85.0","retrieval_b8",3,"SS3",8,468,"grapes.png",1,0,0,"recon_trial","SS3",8,4,"pred","grocery store.png",5,1,"asparagus.png",NA,NA,NA,NA,NA,NA,NA
"09/02/2021 22:40:46","09/02/2021 17:40:44",40999,4,3008809,"5ec771e68288e91bf1919096","Firefox 85.0","retrieval_b8",3,"SS3",9,717,"asparagus.png",1,0,0,"recon_trial","SS3",8,4,"pred","grocery store.png",6,4,"grapes.png",NA,NA,NA,NA,NA,NA,NA
"09/02/2021 22:40:58","09/02/2021 17:40:56",40999,4,3008809,"5ec771e68288e91bf1919096","Firefox 85.0","retrieval_b8",3,"SS3",11,9715,"eagle.png",1,1,0,"recon_trial","SS3",8,2,"rand","pet store.png",1,4,"eagle.png",NA,NA,NA,NA,NA,NA,NA
"09/02/2021 22:41:00","09/02/2021 17:40:59",40999,4,3008809,"5ec771e68288e91bf1919096","Firefox 85.0","retrieval_b8",3,"SS3",12,2855,"bear.png",1,1,0,"recon_trial","SS3",8,2,"rand","pet store.png",2,1,"bear.png",NA,NA,NA,NA,NA,NA,NA
"09/02/2021 22:41:03","09/02/2021 17:41:02",40999,4,3008809,"5ec771e68288e91bf1919096","Firefox 85.0","retrieval_b8",3,"SS3",13,2945,"badger.png",1,0,0,"recon_trial","SS3",8,2,"rand","pet store.png",3,3,"platypus.png",NA,NA,NA,NA,NA,NA,NA
"09/02/2021 22:41:05","09/02/2021 17:41:03",40999,4,3008809,"5ec771e68288e91bf1919096","Firefox 85.0","retrieval_b8",3,"SS3",14,1399,"pangolin.png",1,0,0,"recon_trial","SS3",8,2,"rand","pet store.png",4,2,"badger.png",NA,NA,NA,NA,NA,NA,NA
"09/02/2021 22:41:06","09/02/2021 17:41:04",40999,4,3008809,"5ec771e68288e91bf1919096","Firefox 85.0","retrieval_b8",3,"SS3",15,713,"platypus.png",1,0,0,"recon_trial","SS3",8,2,"rand","pet store.png",5,3,"pangolin.png",NA,NA,NA,NA,NA,NA,NA
"09/02/2021 22:41:07","09/02/2021 17:41:05",40999,4,3008809,"5ec771e68288e91bf1919096","Firefox 85.0","retrieval_b8",3,"SS3",16,1180,"emu.png",1,1,0,"recon_trial","SS3",8,2,"rand","pet store.png",6,1,"emu.png",NA,NA,NA,NA,NA,NA,NA
"09/02/2021 22:25:28","09/02/2021 17:25:26",40999,4,3008936,"5efa246d81a512824bc2d703","Chrome 88.0.4324.150","retrieval_b1",4,"SS2",4,9074.90999999573,"bear.png",1,1,0,"recon_trial","SS2",1,4,"pred","pet store.png",1,1,"bear.png",NA,NA,NA,NA,NA,NA,NA
"09/02/2021 22:25:31","09/02/2021 17:25:29",40999,4,3008936,"5efa246d81a512824bc2d703","Chrome 88.0.4324.150","retrieval_b1",4,"SS2",5,3196.07000000542,"lion.png",1,1,0,"recon_trial","SS2",1,4,"pred","pet store.png",2,4,"lion.png",NA,NA,NA,NA,NA,NA,NA
"09/02/2021 22:25:35","09/02/2021 17:25:33",40999,4,3008936,"5efa246d81a512824bc2d703","Chrome 88.0.4324.150","retrieval_b1",4,"SS2",6,3550.64499999571,"camel.png",1,0,0,"recon_trial","SS2",1,4,"pred","pet store.png",3,3,"stingray.png",NA,NA,NA,NA,NA,NA,NA
"09/02/2021 22:25:35","09/02/2021 17:25:34",40999,4,3008936,"5efa246d81a512824bc2d703","Chrome 88.0.4324.150","retrieval_b1",4,"SS2",7,910.629999998491,"moose.png",1,0,0,"recon_trial","SS2",1,4,"pred","pet store.png",4,4,"camel.png",NA,NA,NA,NA,NA,NA,NA
"09/02/2021 22:25:36","09/02/2021 17:25:35",40999,4,3008936,"5efa246d81a512824bc2d703","Chrome 88.0.4324.150","retrieval_b1",4,"SS2",8,967.839999997523,"stingray.png",1,0,0,"recon_trial","SS2",1,4,"pred","pet store.png",5,2,"moose.png",NA,NA,NA,NA,NA,NA,NA
"09/02/2021 22:25:37","09/02/2021 17:25:35",40999,4,3008936,"5efa246d81a512824bc2d703","Chrome 88.0.4324.150","retrieval_b1",4,"SS2",9,765.784999995958,"panda.png",1,1,0,"recon_trial","SS2",1,4,"pred","pet store.png",6,3,"panda.png",NA,NA,NA,NA,NA,NA,NA
"09/02/2021 22:25:44","09/02/2021 17:25:42",40999,4,3008936,"5efa246d81a512824bc2d703","Chrome 88.0.4324.150","retrieval_b1",4,"SS2",11,5852.45999999461,"waffle.png",1,1,0,"recon_trial","SS2",1,2,"rand","grocery store.png",1,2,"waffle.png",NA,NA,NA,NA,NA,NA,NA
"09/02/2021 22:25:48","09/02/2021 17:25:46",40999,4,3008936,"5efa246d81a512824bc2d703","Chrome 88.0.4324.150","retrieval_b1",4,"SS2",12,3427.3450000037,"caramelapple.png",1,1,0,"recon_trial","SS2",1,2,"rand","grocery store.png",2,3,"caramelapple.png",NA,NA,NA,NA,NA,NA,NA
"09/02/2021 22:25:51","09/02/2021 17:25:49",40999,4,3008936,"5efa246d81a512824bc2d703","Chrome 88.0.4324.150","retrieval_b1",4,"SS2",13,3182.46999999974,"pork.png",1,0,0,"recon_trial","SS2",1,2,"rand","grocery store.png",3,1,"hummus.png",NA,NA,NA,NA,NA,NA,NA
"09/02/2021 22:25:53","09/02/2021 17:25:51",40999,4,3008936,"5efa246d81a512824bc2d703","Chrome 88.0.4324.150","retrieval_b1",4,"SS2",14,1705.28500000364,"hummus.png",1,0,0,"recon_trial","SS2",1,2,"rand","grocery store.png",4,3,"nachos.png",NA,NA,NA,NA,NA,NA,NA
"09/02/2021 22:25:54","09/02/2021 17:25:52",40999,4,3008936,"5efa246d81a512824bc2d703","Chrome 88.0.4324.150","retrieval_b1",4,"SS2",15,1148.79500000097,"sandwich.png",1,1,0,"recon_trial","SS2",1,2,"rand","grocery store.png",5,4,"sandwich.png",NA,NA,NA,NA,NA,NA,NA
"09/02/2021 22:25:54","09/02/2021 17:25:52",40999,4,3008936,"5efa246d81a512824bc2d703","Chrome 88.0.4324.150","retrieval_b1",4,"SS2",16,434.010000011767,"nachos.png",1,0,0,"recon_trial","SS2",1,2,"rand","grocery store.png",6,1,"pork.png",NA,NA,NA,NA,NA,NA,NA
"09/02/2021 22:29:18","09/02/2021 17:29:16",40999,4,3008936,"5efa246d81a512824bc2d703","Chrome 88.0.4324.150","retrieval_b2",3,"SS2",4,3563.64000000758,"toucan.png",1,1,0,"recon_trial","SS2",2,3,"pred","pet store.png",1,1,"toucan.png",NA,NA,NA,NA,NA,NA,NA
"09/02/2021 22:29:22","09/02/2021 17:29:20",40999,4,3008936,"5efa246d81a512824bc2d703","Chrome 88.0.4324.150","retrieval_b2",3,"SS2",5,3907.41500000877,"squirrel.png",1,0,0,"recon_trial","SS2",2,3,"pred","pet store.png",2,4,"llama.png",NA,NA,NA,NA,NA,NA,NA
"09/02/2021 22:29:22","09/02/2021 17:29:21",40999,4,3008936,"5efa246d81a512824bc2d703","Chrome 88.0.4324.150","retrieval_b2",3,"SS2",6,753.549999993993,"grasshopper.png",1,0,0,"recon_trial","SS2",2,3,"pred","pet store.png",3,3,"squid.png",NA,NA,NA,NA,NA,NA,NA
"09/02/2021 22:29:23","09/02/2021 17:29:21",40999,4,3008936,"5efa246d81a512824bc2d703","Chrome 88.0.4324.150","retrieval_b2",3,"SS2",7,744.675000009011,"llama.png",1,0,0,"recon_trial","SS2",2,3,"pred","pet store.png",4,4,"grasshopper.png",NA,NA,NA,NA,NA,NA,NA
"09/02/2021 22:29:24","09/02/2021 17:29:22",40999,4,3008936,"5efa246d81a512824bc2d703","Chrome 88.0.4324.150","retrieval_b2",3,"SS2",8,965.635000000475,"squid.png",1,0,0,"recon_trial","SS2",2,3,"pred","pet store.png",5,2,"sheep.png",NA,NA,NA,NA,NA,NA,NA
"09/02/2021 22:29:27","09/02/2021 17:29:25",40999,4,3008936,"5efa246d81a512824bc2d703","Chrome 88.0.4324.150","retrieval_b2",3,"SS2",9,2450.77999999921,"sheep.png",1,0,0,"recon_trial","SS2",2,3,"pred","pet store.png",6,3,"squirrel.png",NA,NA,NA,NA,NA,NA,NA
"09/02/2021 22:29:34","09/02/2021 17:29:33",40999,4,3008936,"5efa246d81a512824bc2d703","Chrome 88.0.4324.150","retrieval_b2",3,"SS2",11,6705.50999999978,"orange.png",1,0,0,"recon_trial","SS2",2,4,"rand","grocery store.png",1,4,"fortunecookie.png",NA,NA,NA,NA,NA,NA,NA
"09/02/2021 22:29:35","09/02/2021 17:29:34",40999,4,3008936,"5efa246d81a512824bc2d703","Chrome 88.0.4324.150","retrieval_b2",3,"SS2",12,1114.95000000286,"pizza.png",1,0,0,"recon_trial","SS2",2,4,"rand","grocery store.png",2,2,"orange.png",NA,NA,NA,NA,NA,NA,NA
"09/02/2021 22:29:36","09/02/2021 17:29:35",40999,4,3008936,"5efa246d81a512824bc2d703","Chrome 88.0.4324.150","retrieval_b2",3,"SS2",13,949.134999988019,"taco.png",1,1,0,"recon_trial","SS2",2,4,"rand","grocery store.png",3,1,"taco.png",NA,NA,NA,NA,NA,NA,NA
"09/02/2021 22:29:37","09/02/2021 17:29:36",40999,4,3008936,"5efa246d81a512824bc2d703","Chrome 88.0.4324.150","retrieval_b2",3,"SS2",14,882.744999995339,"fortunecookie.png",1,0,0,"recon_trial","SS2",2,4,"rand","grocery store.png",4,3,"pizza.png",NA,NA,NA,NA,NA,NA,NA
"09/02/2021 22:29:38","09/02/2021 17:29:37",40999,4,3008936,"5efa246d81a512824bc2d703","Chrome 88.0.4324.150","retrieval_b2",3,"SS2",15,1075.57000000088,"tomato.png",1,0,0,"recon_trial","SS2",2,4,"rand","grocery store.png",5,2,"hotdog.png",NA,NA,NA,NA,NA,NA,NA
"09/02/2021 22:29:39","09/02/2021 17:29:37",40999,4,3008936,"5efa246d81a512824bc2d703","Chrome 88.0.4324.150","retrieval_b2",3,"SS2",16,718.080000006012,"hotdog.png",1,0,0,"recon_trial","SS2",2,4,"rand","grocery store.png",6,3,"tomato.png",NA,NA,NA,NA,NA,NA,NA
"09/02/2021 22:33:56","09/02/2021 17:33:54",40999,4,3008936,"5efa246d81a512824bc2d703","Chrome 88.0.4324.150","retrieval_b3",3,"SS2",4,2635.19500000984,"ferret.png",1,1,0,"recon_trial","SS2",3,1,"pred","pet store.png",1,1,"ferret.png",NA,NA,NA,NA,NA,NA,NA
"09/02/2021 22:33:57","09/02/2021 17:33:55",40999,4,3008936,"5efa246d81a512824bc2d703","Chrome 88.0.4324.150","retrieval_b3",3,"SS2",5,1242.10000000312,"beetle.png",1,1,0,"recon_trial","SS2",3,1,"pred","pet store.png",2,4,"beetle.png",NA,NA,NA,NA,NA,NA,NA
"09/02/2021 22:34:01","09/02/2021 17:33:59",40999,4,3008936,"5efa246d81a512824bc2d703","Chrome 88.0.4324.150","retrieval_b3",3,"SS2",6,3671.0149999999,"cardinal.png",1,0,0,"recon_trial","SS2",3,1,"pred","pet store.png",3,3,"emu.png",NA,NA,NA,NA,NA,NA,NA
"09/02/2021 22:34:02","09/02/2021 17:34:00",40999,4,3008936,"5efa246d81a512824bc2d703","Chrome 88.0.4324.150","retrieval_b3",3,"SS2",7,1064.10499999765,"pangolin.png",1,0,0,"recon_trial","SS2",3,1,"pred","pet store.png",4,4,"cardinal.png",NA,NA,NA,NA,NA,NA,NA
"09/02/2021 22:34:04","09/02/2021 17:34:02",40999,4,3008936,"5efa246d81a512824bc2d703","Chrome 88.0.4324.150","retrieval_b3",3,"SS2",8,1785.78500000003,"emu.png",1,0,0,"recon_trial","SS2",3,1,"pred","pet store.png",5,2,"ostrich.png",NA,NA,NA,NA,NA,NA,NA
"09/02/2021 22:34:05","09/02/2021 17:34:03",40999,4,3008936,"5efa246d81a512824bc2d703","Chrome 88.0.4324.150","retrieval_b3",3,"SS2",9,855.394999991404,"ostrich.png",1,0,0,"recon_trial","SS2",3,1,"pred","pet store.png",6,3,"pangolin.png",NA,NA,NA,NA,NA,NA,NA
"09/02/2021 22:34:12","09/02/2021 17:34:11",40999,4,3008936,"5efa246d81a512824bc2d703","Chrome 88.0.4324.150","retrieval_b3",3,"SS2",11,6583.65000000049,"avocado.png",1,1,0,"recon_trial","SS2",3,2,"rand","grocery store.png",1,3,"avocado.png",NA,NA,NA,NA,NA,NA,NA
"09/02/2021 22:34:18","09/02/2021 17:34:16",40999,4,3008936,"5efa246d81a512824bc2d703","Chrome 88.0.4324.150","retrieval_b3",3,"SS2",12,5485.90499999409,"strawberries.png",1,1,0,"recon_trial","SS2",3,2,"rand","grocery store.png",2,1,"strawberries.png",NA,NA,NA,NA,NA,NA,NA
"09/02/2021 22:34:21","09/02/2021 17:34:19",40999,4,3008936,"5efa246d81a512824bc2d703","Chrome 88.0.4324.150","retrieval_b3",3,"SS2",13,2625.76500000432,"peaches.png",1,1,0,"recon_trial","SS2",3,2,"rand","grocery store.png",3,4,"peaches.png",NA,NA,NA,NA,NA,NA,NA
"09/02/2021 22:34:22","09/02/2021 17:34:20",40999,4,3008936,"5efa246d81a512824bc2d703","Chrome 88.0.4324.150","retrieval_b3",3,"SS2",14,1377.11499999568,"blackpepper.png",1,1,0,"recon_trial","SS2",3,2,"rand","grocery store.png",4,2,"blackpepper.png",NA,NA,NA,NA,NA,NA,NA
"09/02/2021 22:34:23","09/02/2021 17:34:21",40999,4,3008936,"5efa246d81a512824bc2d703","Chrome 88.0.4324.150","retrieval_b3",3,"SS2",15,672.430000005988,"starfruit.png",1,1,0,"recon_trial","SS2",3,2,"rand","grocery store.png",5,4,"starfruit.png",NA,NA,NA,NA,NA,NA,NA
"09/02/2021 22:34:23","09/02/2021 17:34:22",40999,4,3008936,"5efa246d81a512824bc2d703","Chrome 88.0.4324.150","retrieval_b3",3,"SS2",16,627.619999999297,"rice.png",1,1,0,"recon_trial","SS2",3,2,"rand","grocery store.png",6,1,"rice.png",NA,NA,NA,NA,NA,NA,NA
"09/02/2021 22:37:36","09/02/2021 17:37:34",40999,4,3008936,"5efa246d81a512824bc2d703","Chrome 88.0.4324.150","retrieval_b4",3,"SS2",11,6358.745000005,"ramen.png",1,1,0,"recon_trial","SS2",4,1,"rand","grocery store.png",1,2,"ramen.png",NA,NA,NA,NA,NA,NA,NA
"09/02/2021 22:37:38","09/02/2021 17:37:36",40999,4,3008936,"5efa246d81a512824bc2d703","Chrome 88.0.4324.150","retrieval_b4",3,"SS2",12,1968.74499999103,"cherries.png",1,1,0,"recon_trial","SS2",4,1,"rand","grocery store.png",2,1,"cherries.png",NA,NA,NA,NA,NA,NA,NA
"09/02/2021 22:37:41","09/02/2021 17:37:39",40999,4,3008936,"5efa246d81a512824bc2d703","Chrome 88.0.4324.150","retrieval_b4",3,"SS2",13,2785.2450000064,"potatochips.png",1,1,0,"recon_trial","SS2",4,1,"rand","grocery store.png",3,4,"potatochips.png",NA,NA,NA,NA,NA,NA,NA
"09/02/2021 22:37:47","09/02/2021 17:37:45",40999,4,3008936,"5efa246d81a512824bc2d703","Chrome 88.0.4324.150","retrieval_b4",3,"SS2",14,5652.5399999955,"seaweed.png",1,1,0,"recon_trial","SS2",4,1,"rand","grocery store.png",4,3,"seaweed.png",NA,NA,NA,NA,NA,NA,NA
"09/02/2021 22:37:47","09/02/2021 17:37:46",40999,4,3008936,"5efa246d81a512824bc2d703","Chrome 88.0.4324.150","retrieval_b4",3,"SS2",15,790.899999992689,"cupnoodle.png",1,1,0,"recon_trial","SS2",4,1,"rand","grocery store.png",5,4,"cupnoodle.png",NA,NA,NA,NA,NA,NA,NA
"09/02/2021 22:37:48","09/02/2021 17:37:46",40999,4,3008936,"5efa246d81a512824bc2d703","Chrome 88.0.4324.150","retrieval_b4",3,"SS2",16,674.624999999651,"raspberries.png",1,1,0,"recon_trial","SS2",4,1,"rand","grocery store.png",6,1,"raspberries.png",NA,NA,NA,NA,NA,NA,NA
"09/02/2021 22:37:52","09/02/2021 17:37:50",40999,4,3008936,"5efa246d81a512824bc2d703","Chrome 88.0.4324.150","retrieval_b4",3,"SS2",4,2994.96999999974,"crow.png",1,1,0,"recon_trial","SS2",4,2,"pred","pet store.png",1,1,"crow.png",NA,NA,NA,NA,NA,NA,NA
"09/02/2021 22:37:55","09/02/2021 17:37:54",40999,4,3008936,"5efa246d81a512824bc2d703","Chrome 88.0.4324.150","retrieval_b4",3,"SS2",5,3198.61500000115,"wolf.png",1,1,0,"recon_trial","SS2",4,2,"pred","pet store.png",2,4,"wolf.png",NA,NA,NA,NA,NA,NA,NA
"09/02/2021 22:37:57","09/02/2021 17:37:56",40999,4,3008936,"5efa246d81a512824bc2d703","Chrome 88.0.4324.150","retrieval_b4",3,"SS2",6,2047.44999999821,"cheetah.png",1,1,0,"recon_trial","SS2",4,2,"pred","pet store.png",3,3,"cheetah.png",NA,NA,NA,NA,NA,NA,NA
"09/02/2021 22:38:00","09/02/2021 17:37:58",40999,4,3008936,"5efa246d81a512824bc2d703","Chrome 88.0.4324.150","retrieval_b4",3,"SS2",7,2084.54999999958,"fox.png",1,1,0,"recon_trial","SS2",4,2,"pred","pet store.png",4,4,"fox.png",NA,NA,NA,NA,NA,NA,NA
"09/02/2021 22:38:01","09/02/2021 17:37:59",40999,4,3008936,"5efa246d81a512824bc2d703","Chrome 88.0.4324.150","retrieval_b4",3,"SS2",8,1566.73000000592,"kangaroo.png",1,1,0,"recon_trial","SS2",4,2,"pred","pet store.png",5,2,"kangaroo.png",NA,NA,NA,NA,NA,NA,NA
"09/02/2021 22:38:02","09/02/2021 17:38:00",40999,4,3008936,"5efa246d81a512824bc2d703","Chrome 88.0.4324.150","retrieval_b4",3,"SS2",9,800.720000013825,"manatee.png",1,1,0,"recon_trial","SS2",4,2,"pred","pet store.png",6,3,"manatee.png",NA,NA,NA,NA,NA,NA,NA
"09/02/2021 22:41:17","09/02/2021 17:41:15",40999,4,3008936,"5efa246d81a512824bc2d703","Chrome 88.0.4324.150","retrieval_b5",3,"SS2",11,2469.77499999048,"apple.png",1,1,0,"recon_trial","SS2",5,3,"rand","grocery store.png",1,3,"apple.png",NA,NA,NA,NA,NA,NA,NA
"09/02/2021 22:41:18","09/02/2021 17:41:16",40999,4,3008936,"5efa246d81a512824bc2d703","Chrome 88.0.4324.150","retrieval_b5",3,"SS2",12,1294.61500000616,"lemon.png",1,1,0,"recon_trial","SS2",5,3,"rand","grocery store.png",2,4,"lemon.png",NA,NA,NA,NA,NA,NA,NA
"09/02/2021 22:41:23","09/02/2021 17:41:21",40999,4,3008936,"5efa246d81a512824bc2d703","Chrome 88.0.4324.150","retrieval_b5",3,"SS2",13,4302.42999999609,"artichoke.png",1,0,0,"recon_trial","SS2",5,3,"rand","grocery store.png",3,1,"gummybears.png",NA,NA,NA,NA,NA,NA,NA
"09/02/2021 22:41:23","09/02/2021 17:41:22",40999,4,3008936,"5efa246d81a512824bc2d703","Chrome 88.0.4324.150","retrieval_b5",3,"SS2",14,888.615000003483,"gummybears.png",1,0,0,"recon_trial","SS2",5,3,"rand","grocery store.png",4,2,"artichoke.png",NA,NA,NA,NA,NA,NA,NA
"09/02/2021 22:41:25","09/02/2021 17:41:24",40999,4,3008936,"5efa246d81a512824bc2d703","Chrome 88.0.4324.150","retrieval_b5",3,"SS2",15,1951.69000000169,"pancakes.png",1,1,0,"recon_trial","SS2",5,3,"rand","grocery store.png",5,1,"pancakes.png",NA,NA,NA,NA,NA,NA,NA
"09/02/2021 22:41:26","09/02/2021 17:41:24",40999,4,3008936,"5efa246d81a512824bc2d703","Chrome 88.0.4324.150","retrieval_b5",3,"SS2",16,640.794999999343,"dumplings.png",1,1,0,"recon_trial","SS2",5,3,"rand","grocery store.png",6,4,"dumplings.png",NA,NA,NA,NA,NA,NA,NA
"09/02/2021 22:41:29","09/02/2021 17:41:27",40999,4,3008936,"5efa246d81a512824bc2d703","Chrome 88.0.4324.150","retrieval_b5",3,"SS2",4,1421.21999998926,"panther.png",1,1,0,"recon_trial","SS2",5,1,"pred","pet store.png",1,1,"panther.png",NA,NA,NA,NA,NA,NA,NA
"09/02/2021 22:41:34","09/02/2021 17:41:32",40999,4,3008936,"5efa246d81a512824bc2d703","Chrome 88.0.4324.150","retrieval_b5",3,"SS2",5,5378.03000000713,"chameleon.png",1,0,0,"recon_trial","SS2",5,1,"pred","pet store.png",2,4,"bat.png",NA,NA,NA,NA,NA,NA,NA
"09/02/2021 22:41:37","09/02/2021 17:41:35",40999,4,3008936,"5efa246d81a512824bc2d703","Chrome 88.0.4324.150","retrieval_b5",3,"SS2",6,2502.41499999538,"bat.png",1,0,0,"recon_trial","SS2",5,1,"pred","pet store.png",3,3,"chameleon.png",NA,NA,NA,NA,NA,NA,NA
"09/02/2021 22:41:38","09/02/2021 17:41:36",40999,4,3008936,"5efa246d81a512824bc2d703","Chrome 88.0.4324.150","retrieval_b5",3,"SS2",7,1024.82999999484,"seahorse.png",1,1,0,"recon_trial","SS2",5,1,"pred","pet store.png",4,4,"seahorse.png",NA,NA,NA,NA,NA,NA,NA
"09/02/2021 22:41:41","09/02/2021 17:41:39",40999,4,3008936,"5efa246d81a512824bc2d703","Chrome 88.0.4324.150","retrieval_b5",3,"SS2",8,3091.07999999833,"deer.png",1,1,0,"recon_trial","SS2",5,1,"pred","pet store.png",5,2,"deer.png",NA,NA,NA,NA,NA,NA,NA
"09/02/2021 22:41:42","09/02/2021 17:41:40",40999,4,3008936,"5efa246d81a512824bc2d703","Chrome 88.0.4324.150","retrieval_b5",3,"SS2",9,1173.31500000728,"crocodile.png",1,1,0,"recon_trial","SS2",5,1,"pred","pet store.png",6,3,"crocodile.png",NA,NA,NA,NA,NA,NA,NA
"09/02/2021 22:45:05","09/02/2021 17:45:03",40999,4,3008936,"5efa246d81a512824bc2d703","Chrome 88.0.4324.150","retrieval_b6",3,"SS2",4,2718.61999999965,"koala.png",1,1,0,"recon_trial","SS2",6,4,"pred","pet store.png",1,1,"koala.png",NA,NA,NA,NA,NA,NA,NA
"09/02/2021 22:45:08","09/02/2021 17:45:07",40999,4,3008936,"5efa246d81a512824bc2d703","Chrome 88.0.4324.150","retrieval_b6",3,"SS2",5,3126.45500000508,"eagle.png",1,1,0,"recon_trial","SS2",6,4,"pred","pet store.png",2,4,"eagle.png",NA,NA,NA,NA,NA,NA,NA
"09/02/2021 22:45:10","09/02/2021 17:45:09",40999,4,3008936,"5efa246d81a512824bc2d703","Chrome 88.0.4324.150","retrieval_b6",3,"SS2",6,2010.18999998632,"lemur.png",1,0,0,"recon_trial","SS2",6,4,"pred","pet store.png",3,3,"mantis.png",NA,NA,NA,NA,NA,NA,NA
"09/02/2021 22:45:13","09/02/2021 17:45:11",40999,4,3008936,"5efa246d81a512824bc2d703","Chrome 88.0.4324.150","retrieval_b6",3,"SS2",7,2329.45499999914,"walrus.png",1,0,0,"recon_trial","SS2",6,4,"pred","pet store.png",4,4,"lemur.png",NA,NA,NA,NA,NA,NA,NA
"09/02/2021 22:45:14","09/02/2021 17:45:12",40999,4,3008936,"5efa246d81a512824bc2d703","Chrome 88.0.4324.150","retrieval_b6",3,"SS2",8,1414.300000004,"mantis.png",1,0,0,"recon_trial","SS2",6,4,"pred","pet store.png",5,2,"walrus.png",NA,NA,NA,NA,NA,NA,NA
"09/02/2021 22:45:15","09/02/2021 17:45:13",40999,4,3008936,"5efa246d81a512824bc2d703","Chrome 88.0.4324.150","retrieval_b6",3,"SS2",9,613.840000005439,"cuttlefish.png",1,1,0,"recon_trial","SS2",6,4,"pred","pet store.png",6,3,"cuttlefish.png",NA,NA,NA,NA,NA,NA,NA
"09/02/2021 22:45:19","09/02/2021 17:45:17",40999,4,3008936,"5efa246d81a512824bc2d703","Chrome 88.0.4324.150","retrieval_b6",3,"SS2",11,2871.27500001225,"butter.png",1,1,0,"recon_trial","SS2",6,3,"rand","grocery store.png",1,2,"butter.png",NA,NA,NA,NA,NA,NA,NA
"09/02/2021 22:45:24","09/02/2021 17:45:23",40999,4,3008936,"5efa246d81a512824bc2d703","Chrome 88.0.4324.150","retrieval_b6",3,"SS2",12,5478.55500000878,"pretzel.png",1,0,0,"recon_trial","SS2",6,3,"rand","grocery store.png",2,3,"coconut.png",NA,NA,NA,NA,NA,NA,NA
"09/02/2021 22:45:27","09/02/2021 17:45:25",40999,4,3008936,"5efa246d81a512824bc2d703","Chrome 88.0.4324.150","retrieval_b6",3,"SS2",13,2844.09999998752,"popcorn.png",1,1,0,"recon_trial","SS2",6,3,"rand","grocery store.png",3,1,"popcorn.png",NA,NA,NA,NA,NA,NA,NA
"09/02/2021 22:45:28","09/02/2021 17:45:27",40999,4,3008936,"5efa246d81a512824bc2d703","Chrome 88.0.4324.150","retrieval_b6",3,"SS2",14,1180.04000000656,"coconut.png",1,0,0,"recon_trial","SS2",6,3,"rand","grocery store.png",4,4,"walnuts.png",NA,NA,NA,NA,NA,NA,NA
"09/02/2021 22:45:30","09/02/2021 17:45:28",40999,4,3008936,"5efa246d81a512824bc2d703","Chrome 88.0.4324.150","retrieval_b6",3,"SS2",15,1356.87499999767,"walnuts.png",1,0,0,"recon_trial","SS2",6,3,"rand","grocery store.png",5,1,"dragonfruit.png",NA,NA,NA,NA,NA,NA,NA
"09/02/2021 22:45:31","09/02/2021 17:45:29",40999,4,3008936,"5efa246d81a512824bc2d703","Chrome 88.0.4324.150","retrieval_b6",3,"SS2",16,1040.73999999673,"dragonfruit.png",1,0,0,"recon_trial","SS2",6,3,"rand","grocery store.png",6,3,"pretzel.png",NA,NA,NA,NA,NA,NA,NA
"09/02/2021 22:49:08","09/02/2021 17:49:06",40999,4,3008936,"5efa246d81a512824bc2d703","Chrome 88.0.4324.150","retrieval_b7",3,"SS2",4,7664.50499999337,"penguin.png",1,1,0,"recon_trial","SS2",7,2,"pred","pet store.png",1,1,"penguin.png",NA,NA,NA,NA,NA,NA,NA
"09/02/2021 22:49:10","09/02/2021 17:49:08",40999,4,3008936,"5efa246d81a512824bc2d703","Chrome 88.0.4324.150","retrieval_b7",3,"SS2",5,1837.55999999994,"caterpillar.png",1,0,0,"recon_trial","SS2",7,2,"pred","pet store.png",2,4,"cow.png",NA,NA,NA,NA,NA,NA,NA
"09/02/2021 22:49:13","09/02/2021 17:49:11",40999,4,3008936,"5efa246d81a512824bc2d703","Chrome 88.0.4324.150","retrieval_b7",3,"SS2",6,3150.85000000545,"butterfly.png",1,0,0,"recon_trial","SS2",7,2,"pred","pet store.png",3,3,"caterpillar.png",NA,NA,NA,NA,NA,NA,NA
"09/02/2021 22:49:14","09/02/2021 17:49:12",40999,4,3008936,"5efa246d81a512824bc2d703","Chrome 88.0.4324.150","retrieval_b7",3,"SS2",7,822.209999998449,"boar.png",1,0,0,"recon_trial","SS2",7,2,"pred","pet store.png",4,4,"zebra.png",NA,NA,NA,NA,NA,NA,NA
"09/02/2021 22:49:14","09/02/2021 17:49:12",40999,4,3008936,"5efa246d81a512824bc2d703","Chrome 88.0.4324.150","retrieval_b7",3,"SS2",8,493.124999993597,"cow.png",1,0,0,"recon_trial","SS2",7,2,"pred","pet store.png",5,2,"butterfly.png",NA,NA,NA,NA,NA,NA,NA
"09/02/2021 22:49:15","09/02/2021 17:49:13",40999,4,3008936,"5efa246d81a512824bc2d703","Chrome 88.0.4324.150","retrieval_b7",3,"SS2",9,655.30499999295,"zebra.png",1,0,0,"recon_trial","SS2",7,2,"pred","pet store.png",6,3,"boar.png",NA,NA,NA,NA,NA,NA,NA
"09/02/2021 22:49:19","09/02/2021 17:49:17",40999,4,3008936,"5efa246d81a512824bc2d703","Chrome 88.0.4324.150","retrieval_b7",3,"SS2",11,3187.04499999876,"basil.png",1,1,0,"recon_trial","SS2",7,4,"rand","grocery store.png",1,2,"basil.png",NA,NA,NA,NA,NA,NA,NA
"09/02/2021 22:49:20","09/02/2021 17:49:18",40999,4,3008936,"5efa246d81a512824bc2d703","Chrome 88.0.4324.150","retrieval_b7",3,"SS2",12,1016.59500000824,"muffin.png",1,1,0,"recon_trial","SS2",7,4,"rand","grocery store.png",2,4,"muffin.png",NA,NA,NA,NA,NA,NA,NA
"09/02/2021 22:49:22","09/02/2021 17:49:20",40999,4,3008936,"5efa246d81a512824bc2d703","Chrome 88.0.4324.150","retrieval_b7",3,"SS2",13,1869.5000000007,"garlic.png",1,0,0,"recon_trial","SS2",7,4,"rand","grocery store.png",3,3,"bakedpotato.png",NA,NA,NA,NA,NA,NA,NA
"09/02/2021 22:49:23","09/02/2021 17:49:21",40999,4,3008936,"5efa246d81a512824bc2d703","Chrome 88.0.4324.150","retrieval_b7",3,"SS2",14,462.985000005574,"corn.png",1,0,0,"recon_trial","SS2",7,4,"rand","grocery store.png",4,1,"cinnamon.png",NA,NA,NA,NA,NA,NA,NA
"09/02/2021 22:49:23","09/02/2021 17:49:21",40999,4,3008936,"5efa246d81a512824bc2d703","Chrome 88.0.4324.150","retrieval_b7",3,"SS2",15,501.049999991665,"bakedpotato.png",1,0,0,"recon_trial","SS2",7,4,"rand","grocery store.png",5,3,"garlic.png",NA,NA,NA,NA,NA,NA,NA
"09/02/2021 22:49:23","09/02/2021 17:49:22",40999,4,3008936,"5efa246d81a512824bc2d703","Chrome 88.0.4324.150","retrieval_b7",3,"SS2",16,341.424999991432,"cinnamon.png",1,0,0,"recon_trial","SS2",7,4,"rand","grocery store.png",6,4,"corn.png",NA,NA,NA,NA,NA,NA,NA
"09/02/2021 22:52:48","09/02/2021 17:52:46",40999,4,3008936,"5efa246d81a512824bc2d703","Chrome 88.0.4324.150","retrieval_b8",3,"SS2",4,7370.95499999123,"crab.png",1,1,0,"recon_trial","SS2",8,3,"pred","pet store.png",1,1,"crab.png",NA,NA,NA,NA,NA,NA,NA
"09/02/2021 22:52:50","09/02/2021 17:52:49",40999,4,3008936,"5efa246d81a512824bc2d703","Chrome 88.0.4324.150","retrieval_b8",3,"SS2",5,2172.58499999298,"gorilla.png",1,1,0,"recon_trial","SS2",8,3,"pred","pet store.png",2,4,"gorilla.png",NA,NA,NA,NA,NA,NA,NA
"09/02/2021 22:52:54","09/02/2021 17:52:52",40999,4,3008936,"5efa246d81a512824bc2d703","Chrome 88.0.4324.150","retrieval_b8",3,"SS2",6,3018.34500000405,"goat.png",1,1,0,"recon_trial","SS2",8,3,"pred","pet store.png",3,3,"goat.png",NA,NA,NA,NA,NA,NA,NA
"09/02/2021 22:52:55","09/02/2021 17:52:53",40999,4,3008936,"5efa246d81a512824bc2d703","Chrome 88.0.4324.150","retrieval_b8",3,"SS2",7,973.045000006096,"bettafish.png",1,0,0,"recon_trial","SS2",8,3,"pred","pet store.png",4,4,"giraffe.png",NA,NA,NA,NA,NA,NA,NA
"09/02/2021 22:52:58","09/02/2021 17:52:56",40999,4,3008936,"5efa246d81a512824bc2d703","Chrome 88.0.4324.150","retrieval_b8",3,"SS2",8,3252.64500000048,"giraffe.png",1,0,0,"recon_trial","SS2",8,3,"pred","pet store.png",5,2,"flamingo.png",NA,NA,NA,NA,NA,NA,NA
"09/02/2021 22:52:59","09/02/2021 17:52:57",40999,4,3008936,"5efa246d81a512824bc2d703","Chrome 88.0.4324.150","retrieval_b8",3,"SS2",9,879.699999990407,"flamingo.png",1,0,0,"recon_trial","SS2",8,3,"pred","pet store.png",6,3,"bettafish.png",NA,NA,NA,NA,NA,NA,NA
"09/02/2021 22:53:04","09/02/2021 17:53:02",40999,4,3008936,"5efa246d81a512824bc2d703","Chrome 88.0.4324.150","retrieval_b8",3,"SS2",11,4343.48999999929,"ravioli.png",1,1,0,"recon_trial","SS2",8,1,"rand","grocery store.png",1,4,"ravioli.png",NA,NA,NA,NA,NA,NA,NA
"09/02/2021 22:53:05","09/02/2021 17:53:04",40999,4,3008936,"5efa246d81a512824bc2d703","Chrome 88.0.4324.150","retrieval_b8",3,"SS2",12,1226.90500000317,"popcornshrimp.png",1,1,0,"recon_trial","SS2",8,1,"rand","grocery store.png",2,2,"popcornshrimp.png",NA,NA,NA,NA,NA,NA,NA
"09/02/2021 22:53:11","09/02/2021 17:53:09",40999,4,3008936,"5efa246d81a512824bc2d703","Chrome 88.0.4324.150","retrieval_b8",3,"SS2",13,5528.9449999982,"burger.png",1,1,0,"recon_trial","SS2",8,1,"rand","grocery store.png",3,3,"burger.png",NA,NA,NA,NA,NA,NA,NA
"09/02/2021 22:53:12","09/02/2021 17:53:10",40999,4,3008936,"5efa246d81a512824bc2d703","Chrome 88.0.4324.150","retrieval_b8",3,"SS2",14,634.760000000824,"bellpeppers.png",1,0,0,"recon_trial","SS2",8,1,"rand","grocery store.png",4,1,"grapes.png",NA,NA,NA,NA,NA,NA,NA
"09/02/2021 22:53:12","09/02/2021 17:53:10",40999,4,3008936,"5efa246d81a512824bc2d703","Chrome 88.0.4324.150","retrieval_b8",3,"SS2",15,624.639999994542,"grapes.png",1,0,0,"recon_trial","SS2",8,1,"rand","grocery store.png",5,3,"bellpeppers.png",NA,NA,NA,NA,NA,NA,NA
"09/02/2021 22:53:13","09/02/2021 17:53:11",40999,4,3008936,"5efa246d81a512824bc2d703","Chrome 88.0.4324.150","retrieval_b8",3,"SS2",16,930.635000011534,"oliveoil.png",1,1,0,"recon_trial","SS2",8,1,"rand","grocery store.png",6,2,"oliveoil.png",NA,NA,NA,NA,NA,NA,NA
"09/02/2021 23:41:45","09/02/2021 15:41:45",40999,4,3009659,"5c53c145409f6e0001130a32","Firefox 85.0","retrieval_b1",4,"SS4",11,1801,"pork.png",1,1,0,"recon_trial","SS4",1,1,"rand","grocery store.png",1,2,"pork.png",NA,NA,NA,NA,NA,NA,NA
"09/02/2021 23:41:46","09/02/2021 15:41:46",40999,4,3009659,"5c53c145409f6e0001130a32","Firefox 85.0","retrieval_b1",4,"SS4",12,1059,"gummybears.png",1,1,0,"recon_trial","SS4",1,1,"rand","grocery store.png",2,1,"gummybears.png",NA,NA,NA,NA,NA,NA,NA
"09/02/2021 23:41:49","09/02/2021 15:41:49",40999,4,3009659,"5c53c145409f6e0001130a32","Firefox 85.0","retrieval_b1",4,"SS4",13,2974,"burrito.png",1,1,0,"recon_trial","SS4",1,1,"rand","grocery store.png",3,4,"burrito.png",NA,NA,NA,NA,NA,NA,NA
"09/02/2021 23:41:50","09/02/2021 15:41:50",40999,4,3009659,"5c53c145409f6e0001130a32","Firefox 85.0","retrieval_b1",4,"SS4",14,1126,"kiwi.png",1,0,0,"recon_trial","SS4",1,1,"rand","grocery store.png",4,3,"burger.png",NA,NA,NA,NA,NA,NA,NA
"09/02/2021 23:41:52","09/02/2021 15:41:52",40999,4,3009659,"5c53c145409f6e0001130a32","Firefox 85.0","retrieval_b1",4,"SS4",15,1290,"burger.png",1,0,0,"recon_trial","SS4",1,1,"rand","grocery store.png",5,1,"watermelon.png",NA,NA,NA,NA,NA,NA,NA
"09/02/2021 23:41:53","09/02/2021 15:41:53",40999,4,3009659,"5c53c145409f6e0001130a32","Firefox 85.0","retrieval_b1",4,"SS4",16,1121,"watermelon.png",1,0,0,"recon_trial","SS4",1,1,"rand","grocery store.png",6,3,"kiwi.png",NA,NA,NA,NA,NA,NA,NA
"09/02/2021 23:41:58","09/02/2021 15:41:58",40999,4,3009659,"5c53c145409f6e0001130a32","Firefox 85.0","retrieval_b1",4,"SS4",4,2915,"boar.png",1,1,0,"recon_trial","SS4",1,2,"pred","pet store.png",1,3,"boar.png",NA,NA,NA,NA,NA,NA,NA
"09/02/2021 23:41:59","09/02/2021 15:41:59",40999,4,3009659,"5c53c145409f6e0001130a32","Firefox 85.0","retrieval_b1",4,"SS4",5,1522,"crab.png",1,1,0,"recon_trial","SS4",1,2,"pred","pet store.png",2,2,"crab.png",NA,NA,NA,NA,NA,NA,NA
"09/02/2021 23:42:02","09/02/2021 15:42:01",40999,4,3009659,"5c53c145409f6e0001130a32","Firefox 85.0","retrieval_b1",4,"SS4",6,2020,"chameleon.png",1,1,0,"recon_trial","SS4",1,2,"pred","pet store.png",3,4,"chameleon.png",NA,NA,NA,NA,NA,NA,NA
"09/02/2021 23:42:04","09/02/2021 15:42:04",40999,4,3009659,"5c53c145409f6e0001130a32","Firefox 85.0","retrieval_b1",4,"SS4",7,2088,"ladybug.png",1,0,0,"recon_trial","SS4",1,2,"pred","pet store.png",4,2,"wolf.png",NA,NA,NA,NA,NA,NA,NA
"09/02/2021 23:42:04","09/02/2021 15:42:04",40999,4,3009659,"5c53c145409f6e0001130a32","Firefox 85.0","retrieval_b1",4,"SS4",8,725,"frog.png",1,0,0,"recon_trial","SS4",1,2,"pred","pet store.png",5,1,"ladybug.png",NA,NA,NA,NA,NA,NA,NA
"09/02/2021 23:42:05","09/02/2021 15:42:05",40999,4,3009659,"5c53c145409f6e0001130a32","Firefox 85.0","retrieval_b1",4,"SS4",9,689,"wolf.png",1,0,0,"recon_trial","SS4",1,2,"pred","pet store.png",6,4,"frog.png",NA,NA,NA,NA,NA,NA,NA
"09/02/2021 23:45:21","09/02/2021 15:45:21",40999,4,3009659,"5c53c145409f6e0001130a32","Firefox 85.0","retrieval_b2",3,"SS4",4,3456,"hedgehog.png",1,1,0,"recon_trial","SS4",2,4,"pred","pet store.png",1,3,"hedgehog.png",NA,NA,NA,NA,NA,NA,NA
"09/02/2021 23:45:26","09/02/2021 15:45:26",40999,4,3009659,"5c53c145409f6e0001130a32","Firefox 85.0","retrieval_b2",3,"SS4",5,5292,"llama.png",1,0,0,"recon_trial","SS4",2,4,"pred","pet store.png",2,2,"crocodile.png",NA,NA,NA,NA,NA,NA,NA
"09/02/2021 23:45:28","09/02/2021 15:45:28",40999,4,3009659,"5c53c145409f6e0001130a32","Firefox 85.0","retrieval_b2",3,"SS4",6,1308,"crocodile.png",1,0,0,"recon_trial","SS4",2,4,"pred","pet store.png",3,4,"llama.png",NA,NA,NA,NA,NA,NA,NA
"09/02/2021 23:45:29","09/02/2021 15:45:29",40999,4,3009659,"5c53c145409f6e0001130a32","Firefox 85.0","retrieval_b2",3,"SS4",7,1342,"snake.png",1,1,0,"recon_trial","SS4",2,4,"pred","pet store.png",4,2,"snake.png",NA,NA,NA,NA,NA,NA,NA
"09/02/2021 23:45:30","09/02/2021 15:45:30",40999,4,3009659,"5c53c145409f6e0001130a32","Firefox 85.0","retrieval_b2",3,"SS4",8,900,"pelican.png",1,1,0,"recon_trial","SS4",2,4,"pred","pet store.png",5,1,"pelican.png",NA,NA,NA,NA,NA,NA,NA
"09/02/2021 23:45:31","09/02/2021 15:45:31",40999,4,3009659,"5c53c145409f6e0001130a32","Firefox 85.0","retrieval_b2",3,"SS4",9,647,"killerwhale.png",1,1,0,"recon_trial","SS4",2,4,"pred","pet store.png",6,4,"killerwhale.png",NA,NA,NA,NA,NA,NA,NA
"09/02/2021 23:45:37","09/02/2021 15:45:37",40999,4,3009659,"5c53c145409f6e0001130a32","Firefox 85.0","retrieval_b2",3,"SS4",11,2983,"ravioli.png",1,1,0,"recon_trial","SS4",2,3,"rand","grocery store.png",1,2,"ravioli.png",NA,NA,NA,NA,NA,NA,NA
"09/02/2021 23:45:39","09/02/2021 15:45:39",40999,4,3009659,"5c53c145409f6e0001130a32","Firefox 85.0","retrieval_b2",3,"SS4",12,2553,"popcorn.png",1,0,0,"recon_trial","SS4",2,3,"rand","grocery store.png",2,3,"raspberries.png",NA,NA,NA,NA,NA,NA,NA
"09/02/2021 23:45:41","09/02/2021 15:45:41",40999,4,3009659,"5c53c145409f6e0001130a32","Firefox 85.0","retrieval_b2",3,"SS4",13,2080,"raspberries.png",1,0,0,"recon_trial","SS4",2,3,"rand","grocery store.png",3,1,"popcorn.png",NA,NA,NA,NA,NA,NA,NA
"09/02/2021 23:45:43","09/02/2021 15:45:43",40999,4,3009659,"5c53c145409f6e0001130a32","Firefox 85.0","retrieval_b2",3,"SS4",14,1179,"chocolate.png",1,1,0,"recon_trial","SS4",2,3,"rand","grocery store.png",4,4,"chocolate.png",NA,NA,NA,NA,NA,NA,NA
"09/02/2021 23:45:44","09/02/2021 15:45:44",40999,4,3009659,"5c53c145409f6e0001130a32","Firefox 85.0","retrieval_b2",3,"SS4",15,896,"caramelapple.png",1,0,0,"recon_trial","SS4",2,3,"rand","grocery store.png",5,1,"ramen.png",NA,NA,NA,NA,NA,NA,NA
"09/02/2021 23:45:44","09/02/2021 15:45:45",40999,4,3009659,"5c53c145409f6e0001130a32","Firefox 85.0","retrieval_b2",3,"SS4",16,890,"ramen.png",1,0,0,"recon_trial","SS4",2,3,"rand","grocery store.png",6,3,"caramelapple.png",NA,NA,NA,NA,NA,NA,NA
"09/02/2021 23:48:53","09/02/2021 15:48:53",40999,4,3009659,"5c53c145409f6e0001130a32","Firefox 85.0","retrieval_b3",3,"SS4",4,3065,"caterpillar.png",1,1,0,"recon_trial","SS4",3,2,"pred","pet store.png",1,3,"caterpillar.png",NA,NA,NA,NA,NA,NA,NA
"09/02/2021 23:48:56","09/02/2021 15:48:56",40999,4,3009659,"5c53c145409f6e0001130a32","Firefox 85.0","retrieval_b3",3,"SS4",5,2590,"lemur.png",1,0,0,"recon_trial","SS4",3,2,"pred","pet store.png",2,2,"stingray.png",NA,NA,NA,NA,NA,NA,NA
"09/02/2021 23:48:58","09/02/2021 15:48:58",40999,4,3009659,"5c53c145409f6e0001130a32","Firefox 85.0","retrieval_b3",3,"SS4",6,2234,"stingray.png",1,0,0,"recon_trial","SS4",3,2,"pred","pet store.png",3,4,"lemur.png",NA,NA,NA,NA,NA,NA,NA
"09/02/2021 23:48:59","09/02/2021 15:48:59",40999,4,3009659,"5c53c145409f6e0001130a32","Firefox 85.0","retrieval_b3",3,"SS4",7,1306,"camel.png",1,1,0,"recon_trial","SS4",3,2,"pred","pet store.png",4,2,"camel.png",NA,NA,NA,NA,NA,NA,NA
"09/02/2021 23:49:01","09/02/2021 15:49:01",40999,4,3009659,"5c53c145409f6e0001130a32","Firefox 85.0","retrieval_b3",3,"SS4",8,1030,"ostrich.png",1,1,0,"recon_trial","SS4",3,2,"pred","pet store.png",5,1,"ostrich.png",NA,NA,NA,NA,NA,NA,NA
"09/02/2021 23:49:01","09/02/2021 15:49:01",40999,4,3009659,"5c53c145409f6e0001130a32","Firefox 85.0","retrieval_b3",3,"SS4",9,778,"goat.png",1,1,0,"recon_trial","SS4",3,2,"pred","pet store.png",6,4,"goat.png",NA,NA,NA,NA,NA,NA,NA
"09/02/2021 23:49:07","09/02/2021 15:49:07",40999,4,3009659,"5c53c145409f6e0001130a32","Firefox 85.0","retrieval_b3",3,"SS4",11,4118,"croissant.png",1,0,0,"recon_trial","SS4",3,4,"rand","grocery store.png",1,2,"carrots.png",NA,NA,NA,NA,NA,NA,NA
"09/02/2021 23:49:08","09/02/2021 15:49:08",40999,4,3009659,"5c53c145409f6e0001130a32","Firefox 85.0","retrieval_b3",3,"SS4",12,1258,"carrots.png",1,0,0,"recon_trial","SS4",3,4,"rand","grocery store.png",2,4,"mustard.png",NA,NA,NA,NA,NA,NA,NA
"09/02/2021 23:49:09","09/02/2021 15:49:09",40999,4,3009659,"5c53c145409f6e0001130a32","Firefox 85.0","retrieval_b3",3,"SS4",13,909,"mustard.png",1,0,0,"recon_trial","SS4",3,4,"rand","grocery store.png",3,3,"croissant.png",NA,NA,NA,NA,NA,NA,NA
"09/02/2021 23:49:10","09/02/2021 15:49:10",40999,4,3009659,"5c53c145409f6e0001130a32","Firefox 85.0","retrieval_b3",3,"SS4",14,811,"coconut.png",1,1,0,"recon_trial","SS4",3,4,"rand","grocery store.png",4,1,"coconut.png",NA,NA,NA,NA,NA,NA,NA
"09/02/2021 23:49:10","09/02/2021 15:49:10",40999,4,3009659,"5c53c145409f6e0001130a32","Firefox 85.0","retrieval_b3",3,"SS4",15,602,"mushrooms.png",1,1,0,"recon_trial","SS4",3,4,"rand","grocery store.png",5,4,"mushrooms.png",NA,NA,NA,NA,NA,NA,NA
"09/02/2021 23:49:11","09/02/2021 15:49:11",40999,4,3009659,"5c53c145409f6e0001130a32","Firefox 85.0","retrieval_b3",3,"SS4",16,435,"grapes.png",1,1,0,"recon_trial","SS4",3,4,"rand","grocery store.png",6,1,"grapes.png",NA,NA,NA,NA,NA,NA,NA
"09/02/2021 23:52:26","09/02/2021 15:52:26",40999,4,3009659,"5c53c145409f6e0001130a32","Firefox 85.0","retrieval_b4",3,"SS4",11,3632,"pie.png",1,0,0,"recon_trial","SS4",4,3,"rand","grocery store.png",1,4,"guava.png",NA,NA,NA,NA,NA,NA,NA
"09/02/2021 23:52:28","09/02/2021 15:52:28",40999,4,3009659,"5c53c145409f6e0001130a32","Firefox 85.0","retrieval_b4",3,"SS4",12,1699,"cupcake.png",1,0,0,"recon_trial","SS4",4,3,"rand","grocery store.png",2,2,"pie.png",NA,NA,NA,NA,NA,NA,NA
"09/02/2021 23:52:29","09/02/2021 15:52:29",40999,4,3009659,"5c53c145409f6e0001130a32","Firefox 85.0","retrieval_b4",3,"SS4",13,1495,"avocado.png",1,1,0,"recon_trial","SS4",4,3,"rand","grocery store.png",3,3,"avocado.png",NA,NA,NA,NA,NA,NA,NA
"09/02/2021 23:52:31","09/02/2021 15:52:31",40999,4,3009659,"5c53c145409f6e0001130a32","Firefox 85.0","retrieval_b4",3,"SS4",14,1403,"pie.png",1,0,0,"recon_trial","SS4",4,3,"rand","grocery store.png",4,1,"rice.png",NA,NA,NA,NA,NA,NA,NA
"09/02/2021 23:52:32","09/02/2021 15:52:31",40999,4,3009659,"5c53c145409f6e0001130a32","Firefox 85.0","retrieval_b4",3,"SS4",15,757,"guava.png",1,0,0,"recon_trial","SS4",4,3,"rand","grocery store.png",5,3,"coffee.png",NA,NA,NA,NA,NA,NA,NA
"09/02/2021 23:52:32","09/02/2021 15:52:32",40999,4,3009659,"5c53c145409f6e0001130a32","Firefox 85.0","retrieval_b4",3,"SS4",16,665,"coffee.png",1,0,0,"recon_trial","SS4",4,3,"rand","grocery store.png",6,2,"cupcake.png",NA,NA,NA,NA,NA,NA,NA
"09/02/2021 23:52:34","09/02/2021 15:52:34",40999,4,3009659,"5c53c145409f6e0001130a32","Firefox 85.0","retrieval_b4",3,"SS4",4,1418,"dragonfly.png",1,0,0,"recon_trial","SS4",4,1,"pred","pet store.png",1,3,"mantis.png",NA,NA,NA,NA,NA,NA,NA
"09/02/2021 23:52:36","09/02/2021 15:52:36",40999,4,3009659,"5c53c145409f6e0001130a32","Firefox 85.0","retrieval_b4",3,"SS4",5,1572,"cheetah.png",1,0,0,"recon_trial","SS4",4,1,"pred","pet store.png",2,2,"moose.png",NA,NA,NA,NA,NA,NA,NA
"09/02/2021 23:52:37","09/02/2021 15:52:37",40999,4,3009659,"5c53c145409f6e0001130a32","Firefox 85.0","retrieval_b4",3,"SS4",6,913,"moose.png",1,0,0,"recon_trial","SS4",4,1,"pred","pet store.png",3,4,"dolphin.png",NA,NA,NA,NA,NA,NA,NA
"09/02/2021 23:52:38","09/02/2021 15:52:38",40999,4,3009659,"5c53c145409f6e0001130a32","Firefox 85.0","retrieval_b4",3,"SS4",7,568,"hippo.png",1,0,0,"recon_trial","SS4",4,1,"pred","pet store.png",4,2,"dragonfly.png",NA,NA,NA,NA,NA,NA,NA
"09/02/2021 23:52:39","09/02/2021 15:52:39",40999,4,3009659,"5c53c145409f6e0001130a32","Firefox 85.0","retrieval_b4",3,"SS4",8,1405,"mantis.png",1,0,0,"recon_trial","SS4",4,1,"pred","pet store.png",5,1,"hippo.png",NA,NA,NA,NA,NA,NA,NA
"09/02/2021 23:52:40","09/02/2021 15:52:40",40999,4,3009659,"5c53c145409f6e0001130a32","Firefox 85.0","retrieval_b4",3,"SS4",9,1107,"dolphin.png",1,0,0,"recon_trial","SS4",4,1,"pred","pet store.png",6,4,"cheetah.png",NA,NA,NA,NA,NA,NA,NA
"09/02/2021 23:55:57","09/02/2021 15:55:57",40999,4,3009659,"5c53c145409f6e0001130a32","Firefox 85.0","retrieval_b5",3,"SS4",4,2140,"panda.png",1,1,0,"recon_trial","SS4",5,3,"pred","pet store.png",1,3,"panda.png",NA,NA,NA,NA,NA,NA,NA
"09/02/2021 23:56:00","09/02/2021 15:56:00",40999,4,3009659,"5c53c145409f6e0001130a32","Firefox 85.0","retrieval_b5",3,"SS4",5,2709,"squirrel.png",1,1,0,"recon_trial","SS4",5,3,"pred","pet store.png",2,2,"squirrel.png",NA,NA,NA,NA,NA,NA,NA
"09/02/2021 23:56:02","09/02/2021 15:56:02",40999,4,3009659,"5c53c145409f6e0001130a32","Firefox 85.0","retrieval_b5",3,"SS4",6,2225,"beetle.png",1,1,0,"recon_trial","SS4",5,3,"pred","pet store.png",3,4,"beetle.png",NA,NA,NA,NA,NA,NA,NA
"09/02/2021 23:56:03","09/02/2021 15:56:03",40999,4,3009659,"5c53c145409f6e0001130a32","Firefox 85.0","retrieval_b5",3,"SS4",7,733,"horse.png",1,0,0,"recon_trial","SS4",5,3,"pred","pet store.png",4,2,"walrus.png",NA,NA,NA,NA,NA,NA,NA
"09/02/2021 23:56:04","09/02/2021 15:56:04",40999,4,3009659,"5c53c145409f6e0001130a32","Firefox 85.0","retrieval_b5",3,"SS4",8,663,"walrus.png",1,0,0,"recon_trial","SS4",5,3,"pred","pet store.png",5,1,"donkey.png",NA,NA,NA,NA,NA,NA,NA
"09/02/2021 23:56:05","09/02/2021 15:56:05",40999,4,3009659,"5c53c145409f6e0001130a32","Firefox 85.0","retrieval_b5",3,"SS4",9,778,"donkey.png",1,0,0,"recon_trial","SS4",5,3,"pred","pet store.png",6,4,"horse.png",NA,NA,NA,NA,NA,NA,NA
"09/02/2021 23:56:09","09/02/2021 15:56:09",40999,4,3009659,"5c53c145409f6e0001130a32","Firefox 85.0","retrieval_b5",3,"SS4",11,3879,"jalapeno.png",1,1,0,"recon_trial","SS4",5,4,"rand","grocery store.png",1,4,"jalapeno.png",NA,NA,NA,NA,NA,NA,NA
"09/02/2021 23:56:11","09/02/2021 15:56:11",40999,4,3009659,"5c53c145409f6e0001130a32","Firefox 85.0","retrieval_b5",3,"SS4",12,1734,"apple.png",1,0,0,"recon_trial","SS4",5,4,"rand","grocery store.png",2,3,"potatochips.png",NA,NA,NA,NA,NA,NA,NA
"09/02/2021 23:56:12","09/02/2021 15:56:12",40999,4,3009659,"5c53c145409f6e0001130a32","Firefox 85.0","retrieval_b5",3,"SS4",13,660,"potatochips.png",1,0,0,"recon_trial","SS4",5,4,"rand","grocery store.png",3,1,"cheese.png",NA,NA,NA,NA,NA,NA,NA
"09/02/2021 23:56:13","09/02/2021 15:56:13",40999,4,3009659,"5c53c145409f6e0001130a32","Firefox 85.0","retrieval_b5",3,"SS4",14,817,"cheese.png",1,0,0,"recon_trial","SS4",5,4,"rand","grocery store.png",4,2,"apple.png",NA,NA,NA,NA,NA,NA,NA
"09/02/2021 23:56:14","09/02/2021 15:56:14",40999,4,3009659,"5c53c145409f6e0001130a32","Firefox 85.0","retrieval_b5",3,"SS4",15,763,"popcornshrimp.png",1,0,0,"recon_trial","SS4",5,4,"rand","grocery store.png",5,1,"edamame.png",NA,NA,NA,NA,NA,NA,NA
"09/02/2021 23:56:14","09/02/2021 15:56:14",40999,4,3009659,"5c53c145409f6e0001130a32","Firefox 85.0","retrieval_b5",3,"SS4",16,503,"edamame.png",1,0,0,"recon_trial","SS4",5,4,"rand","grocery store.png",6,3,"popcornshrimp.png",NA,NA,NA,NA,NA,NA,NA
"09/02/2021 23:59:24","09/02/2021 15:59:24",40999,4,3009659,"5c53c145409f6e0001130a32","Firefox 85.0","retrieval_b6",3,"SS4",4,3147,"surgeonfish.png",1,0,0,"recon_trial","SS4",6,3,"pred","pet store.png",1,3,"bettafish.png",NA,NA,NA,NA,NA,NA,NA
"09/02/2021 23:59:25","09/02/2021 15:59:25",40999,4,3009659,"5c53c145409f6e0001130a32","Firefox 85.0","retrieval_b6",3,"SS4",5,736,"bat.png",1,0,0,"recon_trial","SS4",6,3,"pred","pet store.png",2,2,"surgeonfish.png",NA,NA,NA,NA,NA,NA,NA
"09/02/2021 23:59:26","09/02/2021 15:59:26",40999,4,3009659,"5c53c145409f6e0001130a32","Firefox 85.0","retrieval_b6",3,"SS4",6,817,"snail.png",1,0,0,"recon_trial","SS4",6,3,"pred","pet store.png",3,4,"giraffe.png",NA,NA,NA,NA,NA,NA,NA
"09/02/2021 23:59:27","09/02/2021 15:59:27",40999,4,3009659,"5c53c145409f6e0001130a32","Firefox 85.0","retrieval_b6",3,"SS4",7,1028,"giraffe.png",1,0,0,"recon_trial","SS4",6,3,"pred","pet store.png",4,2,"snail.png",NA,NA,NA,NA,NA,NA,NA
"09/02/2021 23:59:28","09/02/2021 15:59:28",40999,4,3009659,"5c53c145409f6e0001130a32","Firefox 85.0","retrieval_b6",3,"SS4",8,1431,"bettafish.png",1,0,0,"recon_trial","SS4",6,3,"pred","pet store.png",5,1,"bat.png",NA,NA,NA,NA,NA,NA,NA
"09/02/2021 23:59:29","09/02/2021 15:59:29",40999,4,3009659,"5c53c145409f6e0001130a32","Firefox 85.0","retrieval_b6",3,"SS4",9,457,"ferret.png",1,1,0,"recon_trial","SS4",6,3,"pred","pet store.png",6,4,"ferret.png",NA,NA,NA,NA,NA,NA,NA
"09/02/2021 23:59:33","09/02/2021 15:59:33",40999,4,3009659,"5c53c145409f6e0001130a32","Firefox 85.0","retrieval_b6",3,"SS4",11,2420,"broccoli.png",1,1,0,"recon_trial","SS4",6,1,"rand","grocery store.png",1,4,"broccoli.png",NA,NA,NA,NA,NA,NA,NA
"09/02/2021 23:59:35","09/02/2021 15:59:35",40999,4,3009659,"5c53c145409f6e0001130a32","Firefox 85.0","retrieval_b6",3,"SS4",12,1369,"brusselsprouts.png",1,1,0,"recon_trial","SS4",6,1,"rand","grocery store.png",2,2,"brusselsprouts.png",NA,NA,NA,NA,NA,NA,NA
"09/02/2021 23:59:36","09/02/2021 15:59:36",40999,4,3009659,"5c53c145409f6e0001130a32","Firefox 85.0","retrieval_b6",3,"SS4",13,1075,"pancakes.png",1,1,0,"recon_trial","SS4",6,1,"rand","grocery store.png",3,1,"pancakes.png",NA,NA,NA,NA,NA,NA,NA
"09/02/2021 23:59:36","09/02/2021 15:59:36",40999,4,3009659,"5c53c145409f6e0001130a32","Firefox 85.0","retrieval_b6",3,"SS4",14,441,"honeycomb.png",1,0,0,"recon_trial","SS4",6,1,"rand","grocery store.png",4,3,"tomato.png",NA,NA,NA,NA,NA,NA,NA
"09/02/2021 23:59:37","09/02/2021 15:59:37",40999,4,3009659,"5c53c145409f6e0001130a32","Firefox 85.0","retrieval_b6",3,"SS4",15,745,"bread.png",1,1,0,"recon_trial","SS4",6,1,"rand","grocery store.png",5,2,"bread.png",NA,NA,NA,NA,NA,NA,NA
"09/02/2021 23:59:37","09/02/2021 15:59:37",40999,4,3009659,"5c53c145409f6e0001130a32","Firefox 85.0","retrieval_b6",3,"SS4",16,561,"tomato.png",1,0,0,"recon_trial","SS4",6,1,"rand","grocery store.png",6,3,"honeycomb.png",NA,NA,NA,NA,NA,NA,NA
"10/02/2021 00:02:58","09/02/2021 16:02:58",40999,4,3009659,"5c53c145409f6e0001130a32","Firefox 85.0","retrieval_b7",3,"SS4",11,3278,"asparagus.png",1,1,0,"recon_trial","SS4",7,2,"rand","grocery store.png",1,2,"asparagus.png",NA,NA,NA,NA,NA,NA,NA
"10/02/2021 00:03:01","09/02/2021 16:03:01",40999,4,3009659,"5c53c145409f6e0001130a32","Firefox 85.0","retrieval_b7",3,"SS4",12,2181,"seaweed.png",1,0,0,"recon_trial","SS4",7,2,"rand","grocery store.png",2,1,"salad.png",NA,NA,NA,NA,NA,NA,NA
"10/02/2021 00:03:02","09/02/2021 16:03:02",40999,4,3009659,"5c53c145409f6e0001130a32","Firefox 85.0","retrieval_b7",3,"SS4",13,932,"beet.png",1,1,0,"recon_trial","SS4",7,2,"rand","grocery store.png",3,3,"beet.png",NA,NA,NA,NA,NA,NA,NA
"10/02/2021 00:03:03","09/02/2021 16:03:03",40999,4,3009659,"5c53c145409f6e0001130a32","Firefox 85.0","retrieval_b7",3,"SS4",14,1020,"salad.png",1,0,0,"recon_trial","SS4",7,2,"rand","grocery store.png",4,4,"lemon.png",NA,NA,NA,NA,NA,NA,NA
"10/02/2021 00:03:04","09/02/2021 16:03:04",40999,4,3009659,"5c53c145409f6e0001130a32","Firefox 85.0","retrieval_b7",3,"SS4",15,1415,"lemon.png",1,0,0,"recon_trial","SS4",7,2,"rand","grocery store.png",5,1,"seaweed.png",NA,NA,NA,NA,NA,NA,NA
"10/02/2021 00:03:05","09/02/2021 16:03:05",40999,4,3009659,"5c53c145409f6e0001130a32","Firefox 85.0","retrieval_b7",3,"SS4",16,421,"peaches.png",1,1,0,"recon_trial","SS4",7,2,"rand","grocery store.png",6,4,"peaches.png",NA,NA,NA,NA,NA,NA,NA
"10/02/2021 00:03:11","09/02/2021 16:03:12",40999,4,3009659,"5c53c145409f6e0001130a32","Firefox 85.0","retrieval_b7",3,"SS4",4,4376,"chicken.png",1,1,0,"recon_trial","SS4",7,1,"pred","pet store.png",1,3,"chicken.png",NA,NA,NA,NA,NA,NA,NA
"10/02/2021 00:03:13","09/02/2021 16:03:13",40999,4,3009659,"5c53c145409f6e0001130a32","Firefox 85.0","retrieval_b7",3,"SS4",5,1085,"octopus.png",1,0,0,"recon_trial","SS4",7,1,"pred","pet store.png",2,2,"badger.png",NA,NA,NA,NA,NA,NA,NA
"10/02/2021 00:03:14","09/02/2021 16:03:14",40999,4,3009659,"5c53c145409f6e0001130a32","Firefox 85.0","retrieval_b7",3,"SS4",6,1248,"grasshopper.png",1,0,0,"recon_trial","SS4",7,1,"pred","pet store.png",3,4,"octopus.png",NA,NA,NA,NA,NA,NA,NA
"10/02/2021 00:03:15","09/02/2021 16:03:15",40999,4,3009659,"5c53c145409f6e0001130a32","Firefox 85.0","retrieval_b7",3,"SS4",7,583,"lion.png",1,0,0,"recon_trial","SS4",7,1,"pred","pet store.png",4,2,"toucan.png",NA,NA,NA,NA,NA,NA,NA
"10/02/2021 00:03:15","09/02/2021 16:03:15",40999,4,3009659,"5c53c145409f6e0001130a32","Firefox 85.0","retrieval_b7",3,"SS4",8,742,"toucan.png",1,0,0,"recon_trial","SS4",7,1,"pred","pet store.png",5,1,"lion.png",NA,NA,NA,NA,NA,NA,NA
"10/02/2021 00:03:16","09/02/2021 16:03:16",40999,4,3009659,"5c53c145409f6e0001130a32","Firefox 85.0","retrieval_b7",3,"SS4",9,577,"badger.png",1,0,0,"recon_trial","SS4",7,1,"pred","pet store.png",6,4,"grasshopper.png",NA,NA,NA,NA,NA,NA,NA
"10/02/2021 00:06:42","09/02/2021 16:06:42",40999,4,3009659,"5c53c145409f6e0001130a32","Firefox 85.0","retrieval_b8",3,"SS4",4,2607,"whale.png",1,1,0,"recon_trial","SS4",8,4,"pred","pet store.png",1,3,"whale.png",NA,NA,NA,NA,NA,NA,NA
"10/02/2021 00:06:45","09/02/2021 16:06:45",40999,4,3009659,"5c53c145409f6e0001130a32","Firefox 85.0","retrieval_b8",3,"SS4",5,2977,"chimp.png",1,0,0,"recon_trial","SS4",8,4,"pred","pet store.png",2,2,"rabbit.png",NA,NA,NA,NA,NA,NA,NA
"10/02/2021 00:06:46","09/02/2021 16:06:46",40999,4,3009659,"5c53c145409f6e0001130a32","Firefox 85.0","retrieval_b8",3,"SS4",6,806,"rabbit.png",1,0,0,"recon_trial","SS4",8,4,"pred","pet store.png",3,4,"cow.png",NA,NA,NA,NA,NA,NA,NA
"10/02/2021 00:06:47","09/02/2021 16:06:47",40999,4,3009659,"5c53c145409f6e0001130a32","Firefox 85.0","retrieval_b8",3,"SS4",7,794,"pangolin.png",1,1,0,"recon_trial","SS4",8,4,"pred","pet store.png",4,2,"pangolin.png",NA,NA,NA,NA,NA,NA,NA
"10/02/2021 00:06:47","09/02/2021 16:06:47",40999,4,3009659,"5c53c145409f6e0001130a32","Firefox 85.0","retrieval_b8",3,"SS4",8,663,"cow.png",1,0,0,"recon_trial","SS4",8,4,"pred","pet store.png",5,1,"deer.png",NA,NA,NA,NA,NA,NA,NA
"10/02/2021 00:06:48","09/02/2021 16:06:48",40999,4,3009659,"5c53c145409f6e0001130a32","Firefox 85.0","retrieval_b8",3,"SS4",9,573,"deer.png",1,0,0,"recon_trial","SS4",8,4,"pred","pet store.png",6,4,"chimp.png",NA,NA,NA,NA,NA,NA,NA
"10/02/2021 00:06:56","09/02/2021 16:06:56",40999,4,3009659,"5c53c145409f6e0001130a32","Firefox 85.0","retrieval_b8",3,"SS4",11,4884,"bagel.png",1,1,0,"recon_trial","SS4",8,2,"rand","grocery store.png",1,4,"bagel.png",NA,NA,NA,NA,NA,NA,NA
"10/02/2021 00:06:57","09/02/2021 16:06:57",40999,4,3009659,"5c53c145409f6e0001130a32","Firefox 85.0","retrieval_b8",3,"SS4",12,1015,"acornsquash.png",1,0,0,"recon_trial","SS4",8,2,"rand","grocery store.png",2,1,"chocolatemilk.png",NA,NA,NA,NA,NA,NA,NA
"10/02/2021 00:06:57","09/02/2021 16:06:58",40999,4,3009659,"5c53c145409f6e0001130a32","Firefox 85.0","retrieval_b8",3,"SS4",13,731,"waffle.png",1,0,0,"recon_trial","SS4",8,2,"rand","grocery store.png",3,3,"acornsquash.png",NA,NA,NA,NA,NA,NA,NA
"10/02/2021 00:06:58","09/02/2021 16:06:58",40999,4,3009659,"5c53c145409f6e0001130a32","Firefox 85.0","retrieval_b8",3,"SS4",14,930,"taco.png",1,0,0,"recon_trial","SS4",8,2,"rand","grocery store.png",4,2,"waffle.png",NA,NA,NA,NA,NA,NA,NA
"10/02/2021 00:06:59","09/02/2021 16:06:59",40999,4,3009659,"5c53c145409f6e0001130a32","Firefox 85.0","retrieval_b8",3,"SS4",15,980,"chocolatemilk.png",1,0,0,"recon_trial","SS4",8,2,"rand","grocery store.png",5,3,"pizza.png",NA,NA,NA,NA,NA,NA,NA
"10/02/2021 00:07:00","09/02/2021 16:07:00",40999,4,3009659,"5c53c145409f6e0001130a32","Firefox 85.0","retrieval_b8",3,"SS4",16,436,"pizza.png",1,0,0,"recon_trial","SS4",8,2,"rand","grocery store.png",6,1,"taco.png",NA,NA,NA,NA,NA,NA,NA
"09/02/2021 23:44:55","09/02/2021 15:44:58",40999,4,3009655,"5f49806859401418f7ec6764","Edge 88.0.705.63","retrieval_b1",4,"SS1",4,2860.85999999978,"walnuts.png",1,1,0,"recon_trial","SS1",1,2,"pred","grocery store.png",1,1,"walnuts.png",NA,NA,NA,NA,NA,NA,NA
"09/02/2021 23:44:56","09/02/2021 15:44:59",40999,4,3009655,"5f49806859401418f7ec6764","Edge 88.0.705.63","retrieval_b1",4,"SS1",5,1051.19000000013,"raspberries.png",1,1,0,"recon_trial","SS1",1,2,"pred","grocery store.png",2,4,"raspberries.png",NA,NA,NA,NA,NA,NA,NA
"09/02/2021 23:45:00","09/02/2021 15:45:02",40999,4,3009655,"5f49806859401418f7ec6764","Edge 88.0.705.63","retrieval_b1",4,"SS1",6,3652.40499999982,"cheese.png",1,0,0,"recon_trial","SS1",1,2,"pred","grocery store.png",3,3,"coffee.png",NA,NA,NA,NA,NA,NA,NA
"09/02/2021 23:45:01","09/02/2021 15:45:03",40999,4,3009655,"5f49806859401418f7ec6764","Edge 88.0.705.63","retrieval_b1",4,"SS1",7,864.950000000135,"coffee.png",1,0,0,"recon_trial","SS1",1,2,"pred","grocery store.png",4,4,"grapes.png",NA,NA,NA,NA,NA,NA,NA
"09/02/2021 23:45:02","09/02/2021 15:45:05",40999,4,3009655,"5f49806859401418f7ec6764","Edge 88.0.705.63","retrieval_b1",4,"SS1",8,1723.5499999997,"celery.png",1,1,0,"recon_trial","SS1",1,2,"pred","grocery store.png",5,2,"celery.png",NA,NA,NA,NA,NA,NA,NA
"09/02/2021 23:45:04","09/02/2021 15:45:07",40999,4,3009655,"5f49806859401418f7ec6764","Edge 88.0.705.63","retrieval_b1",4,"SS1",9,1899.26000000014,"grapes.png",1,0,0,"recon_trial","SS1",1,2,"pred","grocery store.png",6,3,"cheese.png",NA,NA,NA,NA,NA,NA,NA
"09/02/2021 23:45:09","09/02/2021 15:45:11",40999,4,3009655,"5f49806859401418f7ec6764","Edge 88.0.705.63","retrieval_b1",4,"SS1",11,3255.14500000008,"emu.png",1,1,0,"recon_trial","SS1",1,1,"rand","pet store.png",1,2,"emu.png",NA,NA,NA,NA,NA,NA,NA
"09/02/2021 23:45:10","09/02/2021 15:45:12",40999,4,3009655,"5f49806859401418f7ec6764","Edge 88.0.705.63","retrieval_b1",4,"SS1",12,1218.15500000048,"gorilla.png",1,1,0,"recon_trial","SS1",1,1,"rand","pet store.png",2,4,"gorilla.png",NA,NA,NA,NA,NA,NA,NA
"09/02/2021 23:45:15","09/02/2021 15:45:17",40999,4,3009655,"5f49806859401418f7ec6764","Edge 88.0.705.63","retrieval_b1",4,"SS1",13,4794.25999999967,"penguin.png",1,1,0,"recon_trial","SS1",1,1,"rand","pet store.png",3,3,"penguin.png",NA,NA,NA,NA,NA,NA,NA
"09/02/2021 23:45:15","09/02/2021 15:45:18",40999,4,3009655,"5f49806859401418f7ec6764","Edge 88.0.705.63","retrieval_b1",4,"SS1",14,715.210000000297,"chicken.png",1,1,0,"recon_trial","SS1",1,1,"rand","pet store.png",4,1,"chicken.png",NA,NA,NA,NA,NA,NA,NA
"09/02/2021 23:45:16","09/02/2021 15:45:19",40999,4,3009655,"5f49806859401418f7ec6764","Edge 88.0.705.63","retrieval_b1",4,"SS1",15,723.24000000026,"lion.png",1,1,0,"recon_trial","SS1",1,1,"rand","pet store.png",5,3,"lion.png",NA,NA,NA,NA,NA,NA,NA
"09/02/2021 23:45:17","09/02/2021 15:45:19",40999,4,3009655,"5f49806859401418f7ec6764","Edge 88.0.705.63","retrieval_b1",4,"SS1",16,587.494999999763,"pelican.png",1,1,0,"recon_trial","SS1",1,1,"rand","pet store.png",6,4,"pelican.png",NA,NA,NA,NA,NA,NA,NA
"09/02/2021 23:48:51","09/02/2021 15:48:53",40999,4,3009655,"5f49806859401418f7ec6764","Edge 88.0.705.63","retrieval_b2",3,"SS1",11,3260.88999999956,"goose.png",1,1,0,"recon_trial","SS1",2,1,"rand","pet store.png",1,2,"goose.png",NA,NA,NA,NA,NA,NA,NA
"09/02/2021 23:48:52","09/02/2021 15:48:55",40999,4,3009655,"5f49806859401418f7ec6764","Edge 88.0.705.63","retrieval_b2",3,"SS1",12,1689.76999999995,"crab.png",1,0,0,"recon_trial","SS1",2,1,"rand","pet store.png",2,3,"ostrich.png",NA,NA,NA,NA,NA,NA,NA
"09/02/2021 23:48:54","09/02/2021 15:48:57",40999,4,3009655,"5f49806859401418f7ec6764","Edge 88.0.705.63","retrieval_b2",3,"SS1",13,1875.72499999987,"ostrich.png",1,0,0,"recon_trial","SS1",2,1,"rand","pet store.png",3,1,"crab.png",NA,NA,NA,NA,NA,NA,NA
"09/02/2021 23:48:56","09/02/2021 15:48:58",40999,4,3009655,"5f49806859401418f7ec6764","Edge 88.0.705.63","retrieval_b2",3,"SS1",14,1625.57000000015,"hammerheadshark.png",1,1,0,"recon_trial","SS1",2,1,"rand","pet store.png",4,4,"hammerheadshark.png",NA,NA,NA,NA,NA,NA,NA
"09/02/2021 23:48:57","09/02/2021 15:48:59",40999,4,3009655,"5f49806859401418f7ec6764","Edge 88.0.705.63","retrieval_b2",3,"SS1",15,971.509999999398,"ladybug.png",1,0,0,"recon_trial","SS1",2,1,"rand","pet store.png",5,1,"caterpillar.png",NA,NA,NA,NA,NA,NA,NA
"09/02/2021 23:48:58","09/02/2021 15:49:00",40999,4,3009655,"5f49806859401418f7ec6764","Edge 88.0.705.63","retrieval_b2",3,"SS1",16,942.185000000791,"caterpillar.png",1,0,0,"recon_trial","SS1",2,1,"rand","pet store.png",6,3,"ladybug.png",NA,NA,NA,NA,NA,NA,NA
"09/02/2021 23:49:01","09/02/2021 15:49:03",40999,4,3009655,"5f49806859401418f7ec6764","Edge 88.0.705.63","retrieval_b2",3,"SS1",4,1880.69500000074,"cinnamon.png",1,1,0,"recon_trial","SS1",2,3,"pred","grocery store.png",1,1,"cinnamon.png",NA,NA,NA,NA,NA,NA,NA
"09/02/2021 23:49:02","09/02/2021 15:49:05",40999,4,3009655,"5f49806859401418f7ec6764","Edge 88.0.705.63","retrieval_b2",3,"SS1",5,1272.17000000019,"hotdog.png",1,1,0,"recon_trial","SS1",2,3,"pred","grocery store.png",2,4,"hotdog.png",NA,NA,NA,NA,NA,NA,NA
"09/02/2021 23:49:07","09/02/2021 15:49:10",40999,4,3009655,"5f49806859401418f7ec6764","Edge 88.0.705.63","retrieval_b2",3,"SS1",6,5108.83000000013,"fortunecookie.png",1,1,0,"recon_trial","SS1",2,3,"pred","grocery store.png",3,3,"fortunecookie.png",NA,NA,NA,NA,NA,NA,NA
