"utc_date","local_date","exp_id","exp_ver","id","prolific_id","browser","task","task_ver","gorilla_counterbalance","trial_row","screen_name","zone_type","rt","response","attempt","accuracy","dishonest","display","counterbalance_order","condition","event_name","seq_pos","correct","test_rep"
"14/07/2021 19:22:30","14/07/2021 14:22:38",56975,3,4265656,"5e19805e05e1512212e4789a","Firefox 89.0","reminder",2,"SS3",20,"Screen 1","response_keyboard",988,3,1,1,0,"test_trial","SS3","pred","grocery store.png",1,3,1
"14/07/2021 19:22:32","14/07/2021 14:22:39",56975,3,4265656,"5e19805e05e1512212e4789a","Firefox 89.0","reminder",2,"SS3",21,"Screen 1","response_keyboard",797,2,1,1,0,"test_trial","SS3","pred","grocery store.png",2,2,1
"14/07/2021 19:22:33","14/07/2021 14:22:41",56975,3,4265656,"5e19805e05e1512212e4789a","Firefox 89.0","reminder",2,"SS3",22,"Screen 1","response_keyboard",603,4,1,1,0,"test_trial","SS3","pred","grocery store.png",3,4,1
"14/07/2021 19:22:34","14/07/2021 14:22:42",56975,3,4265656,"5e19805e05e1512212e4789a","Firefox 89.0","reminder",2,"SS3",23,"Screen 1","response_keyboard",546,2,1,1,0,"test_trial","SS3","pred","grocery store.png",4,2,1
"14/07/2021 19:22:35","14/07/2021 14:22:43",56975,3,4265656,"5e19805e05e1512212e4789a","Firefox 89.0","reminder",2,"SS3",24,"Screen 1","response_keyboard",487,1,1,1,0,"test_trial","SS3","pred","grocery store.png",5,1,1
"14/07/2021 19:22:36","14/07/2021 14:22:44",56975,3,4265656,"5e19805e05e1512212e4789a","Firefox 89.0","reminder",2,"SS3",25,"Screen 1","response_keyboard",420,4,1,1,0,"test_trial","SS3","pred","grocery store.png",6,4,1
"14/07/2021 19:22:42","14/07/2021 14:22:49",56975,3,4265656,"5e19805e05e1512212e4789a","Firefox 89.0","reminder",2,"SS3",28,"Screen 1","response_keyboard",1017,3,1,1,0,"test_trial","SS3","pred","grocery store.png",1,3,2
"14/07/2021 19:22:43","14/07/2021 14:22:50",56975,3,4265656,"5e19805e05e1512212e4789a","Firefox 89.0","reminder",2,"SS3",29,"Screen 1","response_keyboard",348,2,1,1,0,"test_trial","SS3","pred","grocery store.png",2,2,2
"14/07/2021 19:22:44","14/07/2021 14:22:51",56975,3,4265656,"5e19805e05e1512212e4789a","Firefox 89.0","reminder",2,"SS3",30,"Screen 1","response_keyboard",385,4,1,1,0,"test_trial","SS3","pred","grocery store.png",3,4,2
"14/07/2021 19:22:45","14/07/2021 14:22:52",56975,3,4265656,"5e19805e05e1512212e4789a","Firefox 89.0","reminder",2,"SS3",31,"Screen 1","response_keyboard",811,2,1,1,0,"test_trial","SS3","pred","grocery store.png",4,2,2
"14/07/2021 19:22:46","14/07/2021 14:22:53",56975,3,4265656,"5e19805e05e1512212e4789a","Firefox 89.0","reminder",2,"SS3",32,"Screen 1","response_keyboard",404,1,1,1,0,"test_trial","SS3","pred","grocery store.png",5,1,2
"14/07/2021 19:22:47","14/07/2021 14:22:54",56975,3,4265656,"5e19805e05e1512212e4789a","Firefox 89.0","reminder",2,"SS3",33,"Screen 1","response_keyboard",277,4,1,1,0,"test_trial","SS3","pred","grocery store.png",6,4,2
"14/07/2021 19:34:01","14/07/2021 15:34:02",56975,3,4265819,"60d5d29541e3a5a148be906c","Chrome 91.0.4472.124","reminder",2,"SS5",20,"Screen 1","response_keyboard",600.39999999851,1,1,1,0,"test_trial","SS5","pred","grocery store.png",1,1,1
"14/07/2021 19:34:02","14/07/2021 15:34:03",56975,3,4265819,"60d5d29541e3a5a148be906c","Chrome 91.0.4472.124","reminder",2,"SS5",21,"Screen 1","response_keyboard",264.699999999255,4,1,1,0,"test_trial","SS5","pred","grocery store.png",2,4,1
"14/07/2021 19:34:03","14/07/2021 15:34:04",56975,3,4265819,"60d5d29541e3a5a148be906c","Chrome 91.0.4472.124","reminder",2,"SS5",22,"Screen 1","response_keyboard",252.5,3,1,1,0,"test_trial","SS5","pred","grocery store.png",3,3,1
"14/07/2021 19:34:04","14/07/2021 15:34:04",56975,3,4265819,"60d5d29541e3a5a148be906c","Chrome 91.0.4472.124","reminder",2,"SS5",23,"Screen 1","response_keyboard",227.699999999255,4,1,1,0,"test_trial","SS5","pred","grocery store.png",4,4,1
"14/07/2021 19:34:05","14/07/2021 15:34:05",56975,3,4265819,"60d5d29541e3a5a148be906c","Chrome 91.0.4472.124","reminder",2,"SS5",24,"Screen 1","response_keyboard",179.099999997765,2,1,1,0,"test_trial","SS5","pred","grocery store.png",5,2,1
"14/07/2021 19:34:05","14/07/2021 15:34:06",56975,3,4265819,"60d5d29541e3a5a148be906c","Chrome 91.0.4472.124","reminder",2,"SS5",25,"Screen 1","response_keyboard",235.300000000745,3,1,1,0,"test_trial","SS5","pred","grocery store.png",6,3,1
"14/07/2021 19:34:11","14/07/2021 15:34:11",56975,3,4265819,"60d5d29541e3a5a148be906c","Chrome 91.0.4472.124","reminder",2,"SS5",28,"Screen 1","response_keyboard",521.199999999255,1,1,1,0,"test_trial","SS5","pred","grocery store.png",1,1,2
"14/07/2021 19:34:11","14/07/2021 15:34:12",56975,3,4265819,"60d5d29541e3a5a148be906c","Chrome 91.0.4472.124","reminder",2,"SS5",29,"Screen 1","response_keyboard",142.099999997765,4,1,1,0,"test_trial","SS5","pred","grocery store.png",2,4,2
"14/07/2021 19:34:12","14/07/2021 15:34:12",56975,3,4265819,"60d5d29541e3a5a148be906c","Chrome 91.0.4472.124","reminder",2,"SS5",30,"Screen 1","response_keyboard",71.5,3,1,1,0,"test_trial","SS5","pred","grocery store.png",3,3,2
"14/07/2021 19:34:13","14/07/2021 15:34:13",56975,3,4265819,"60d5d29541e3a5a148be906c","Chrome 91.0.4472.124","reminder",2,"SS5",31,"Screen 1","response_keyboard",69.4000000022352,4,1,1,0,"test_trial","SS5","pred","grocery store.png",4,4,2
"14/07/2021 19:34:14","14/07/2021 15:34:14",56975,3,4265819,"60d5d29541e3a5a148be906c","Chrome 91.0.4472.124","reminder",2,"SS5",32,"Screen 1","response_keyboard",558.10000000149,2,1,1,0,"test_trial","SS5","pred","grocery store.png",5,2,2
"14/07/2021 19:34:14","14/07/2021 15:34:15",56975,3,4265819,"60d5d29541e3a5a148be906c","Chrome 91.0.4472.124","reminder",2,"SS5",33,"Screen 1","response_keyboard",235.5,3,1,1,0,"test_trial","SS5","pred","grocery store.png",6,3,2
"14/07/2021 20:14:21","14/07/2021 13:14:14",56975,3,4266017,"60ee922fcc2b54102d237822","Edge 91.0.864.67","reminder",2,"SS6",20,"Screen 1","response_keyboard",738.40000000596,1,1,1,0,"test_trial","SS6","pred","pet store.png",1,1,1
"14/07/2021 20:14:22","14/07/2021 13:14:14",56975,3,4266017,"60ee922fcc2b54102d237822","Edge 91.0.864.67","reminder",2,"SS6",21,"Screen 1","response_keyboard",237,4,1,1,0,"test_trial","SS6","pred","pet store.png",2,4,1
"14/07/2021 20:14:23","14/07/2021 13:14:15",56975,3,4266017,"60ee922fcc2b54102d237822","Edge 91.0.864.67","reminder",2,"SS6",22,"Screen 1","response_keyboard",288.59999999404,3,1,1,0,"test_trial","SS6","pred","pet store.png",3,3,1
"14/07/2021 20:14:24","14/07/2021 13:14:16",56975,3,4266017,"60ee922fcc2b54102d237822","Edge 91.0.864.67","reminder",2,"SS6",23,"Screen 1","response_keyboard",341.29999999702,4,1,1,0,"test_trial","SS6","pred","pet store.png",4,4,1
"14/07/2021 20:14:25","14/07/2021 13:14:17",56975,3,4266017,"60ee922fcc2b54102d237822","Edge 91.0.864.67","reminder",2,"SS6",24,"Screen 1","response_keyboard",311.90000000596,2,1,1,0,"test_trial","SS6","pred","pet store.png",5,2,1
"14/07/2021 20:14:25","14/07/2021 13:14:18",56975,3,4266017,"60ee922fcc2b54102d237822","Edge 91.0.864.67","reminder",2,"SS6",25,"Screen 1","response_keyboard",218.29999999702,3,1,1,0,"test_trial","SS6","pred","pet store.png",6,3,1
"14/07/2021 20:14:31","14/07/2021 13:14:24",56975,3,4266017,"60ee922fcc2b54102d237822","Edge 91.0.864.67","reminder",2,"SS6",28,"Screen 1","response_keyboard",995.40000000596,1,1,1,0,"test_trial","SS6","pred","pet store.png",1,1,2
"14/07/2021 20:14:32","14/07/2021 13:14:24",56975,3,4266017,"60ee922fcc2b54102d237822","Edge 91.0.864.67","reminder",2,"SS6",29,"Screen 1","response_keyboard",122.09999999404,4,1,1,0,"test_trial","SS6","pred","pet store.png",2,4,2
"14/07/2021 20:14:33","14/07/2021 13:14:25",56975,3,4266017,"60ee922fcc2b54102d237822","Edge 91.0.864.67","reminder",2,"SS6",30,"Screen 1","response_keyboard",236.90000000596,3,1,1,0,"test_trial","SS6","pred","pet store.png",3,3,2
"14/07/2021 20:14:33","14/07/2021 13:14:26",56975,3,4266017,"60ee922fcc2b54102d237822","Edge 91.0.864.67","reminder",2,"SS6",31,"Screen 1","response_keyboard",165.5,4,1,1,0,"test_trial","SS6","pred","pet store.png",4,4,2
"14/07/2021 20:14:34","14/07/2021 13:14:26",56975,3,4266017,"60ee922fcc2b54102d237822","Edge 91.0.864.67","reminder",2,"SS6",32,"Screen 1","response_keyboard",236.20000000298,2,1,1,0,"test_trial","SS6","pred","pet store.png",5,2,2
"14/07/2021 20:14:35","14/07/2021 13:14:27",56975,3,4266017,"60ee922fcc2b54102d237822","Edge 91.0.864.67","reminder",2,"SS6",33,"Screen 1","response_keyboard",190.40000000596,3,1,1,0,"test_trial","SS6","pred","pet store.png",6,3,2
"19/07/2021 19:28:25","19/07/2021 15:28:25",56975,3,4297881,"5e9cef3a035d9021d21b24dd","Firefox 90.0","reminder",2,"SS1",20,"Screen 1","response_keyboard",902,1,1,1,0,"test_trial","SS1","pred","grocery store.png",1,1,1
"19/07/2021 19:28:26","19/07/2021 15:28:26",56975,3,4297881,"5e9cef3a035d9021d21b24dd","Firefox 90.0","reminder",2,"SS1",21,"Screen 1","response_keyboard",493,4,1,1,0,"test_trial","SS1","pred","grocery store.png",2,4,1
"19/07/2021 19:28:27","19/07/2021 15:28:27",56975,3,4297881,"5e9cef3a035d9021d21b24dd","Firefox 90.0","reminder",2,"SS1",22,"Screen 1","response_keyboard",599,3,1,1,0,"test_trial","SS1","pred","grocery store.png",3,3,1
"19/07/2021 19:28:28","19/07/2021 15:28:28",56975,3,4297881,"5e9cef3a035d9021d21b24dd","Firefox 90.0","reminder",2,"SS1",23,"Screen 1","response_keyboard",476,4,1,1,0,"test_trial","SS1","pred","grocery store.png",4,4,1
"19/07/2021 19:28:29","19/07/2021 15:28:29",56975,3,4297881,"5e9cef3a035d9021d21b24dd","Firefox 90.0","reminder",2,"SS1",24,"Screen 1","response_keyboard",514,2,1,1,0,"test_trial","SS1","pred","grocery store.png",5,2,1
"19/07/2021 19:28:30","19/07/2021 15:28:30",56975,3,4297881,"5e9cef3a035d9021d21b24dd","Firefox 90.0","reminder",2,"SS1",25,"Screen 1","response_keyboard",358,3,1,1,0,"test_trial","SS1","pred","grocery store.png",6,3,1
"19/07/2021 19:28:35","19/07/2021 15:28:36",56975,3,4297881,"5e9cef3a035d9021d21b24dd","Firefox 90.0","reminder",2,"SS1",28,"Screen 1","response_keyboard",1105,1,1,1,0,"test_trial","SS1","pred","grocery store.png",1,1,2
"19/07/2021 19:28:36","19/07/2021 15:28:36",56975,3,4297881,"5e9cef3a035d9021d21b24dd","Firefox 90.0","reminder",2,"SS1",29,"Screen 1","response_keyboard",209,4,1,1,0,"test_trial","SS1","pred","grocery store.png",2,4,2
"19/07/2021 19:28:37","19/07/2021 15:28:37",56975,3,4297881,"5e9cef3a035d9021d21b24dd","Firefox 90.0","reminder",2,"SS1",30,"Screen 1","response_keyboard",248,3,1,1,0,"test_trial","SS1","pred","grocery store.png",3,3,2
"19/07/2021 19:28:38","19/07/2021 15:28:38",56975,3,4297881,"5e9cef3a035d9021d21b24dd","Firefox 90.0","reminder",2,"SS1",31,"Screen 1","response_keyboard",103,4,1,1,0,"test_trial","SS1","pred","grocery store.png",4,4,2
"19/07/2021 19:28:38","19/07/2021 15:28:39",56975,3,4297881,"5e9cef3a035d9021d21b24dd","Firefox 90.0","reminder",2,"SS1",32,"Screen 1","response_keyboard",399,2,1,1,0,"test_trial","SS1","pred","grocery store.png",5,2,2
"19/07/2021 19:28:39","19/07/2021 15:28:39",56975,3,4297881,"5e9cef3a035d9021d21b24dd","Firefox 90.0","reminder",2,"SS1",33,"Screen 1","response_keyboard",201,3,1,1,0,"test_trial","SS1","pred","grocery store.png",6,3,2
"19/07/2021 19:35:47","19/07/2021 14:35:47",56975,3,4297892,"5ef10fcd68a53e4a87ff6e01","Chrome 91.0.4472.124","reminder",2,"SS5",20,"Screen 1","response_keyboard",469.5,1,1,1,0,"test_trial","SS5","pred","grocery store.png",1,1,1
"19/07/2021 19:35:48","19/07/2021 14:35:47",56975,3,4297892,"5ef10fcd68a53e4a87ff6e01","Chrome 91.0.4472.124","reminder",2,"SS5",21,"Screen 1","response_keyboard",229,4,1,1,0,"test_trial","SS5","pred","grocery store.png",2,4,1
"19/07/2021 19:35:49","19/07/2021 14:35:48",56975,3,4297892,"5ef10fcd68a53e4a87ff6e01","Chrome 91.0.4472.124","reminder",2,"SS5",22,"Screen 1","response_keyboard",159.5,3,1,1,0,"test_trial","SS5","pred","grocery store.png",3,3,1
"19/07/2021 19:35:50","19/07/2021 14:35:49",56975,3,4297892,"5ef10fcd68a53e4a87ff6e01","Chrome 91.0.4472.124","reminder",2,"SS5",23,"Screen 1","response_keyboard",61.3999999761581,4,1,1,0,"test_trial","SS5","pred","grocery store.png",4,4,1
"19/07/2021 19:35:50","19/07/2021 14:35:49",56975,3,4297892,"5ef10fcd68a53e4a87ff6e01","Chrome 91.0.4472.124","reminder",2,"SS5",24,"Screen 1","response_keyboard",74,2,1,1,0,"test_trial","SS5","pred","grocery store.png",5,2,1
"19/07/2021 19:35:51","19/07/2021 14:35:50",56975,3,4297892,"5ef10fcd68a53e4a87ff6e01","Chrome 91.0.4472.124","reminder",2,"SS5",25,"Screen 1","response_keyboard",546.899999976158,3,1,1,0,"test_trial","SS5","pred","grocery store.png",6,3,1
"19/07/2021 19:35:57","19/07/2021 14:35:56",56975,3,4297892,"5ef10fcd68a53e4a87ff6e01","Chrome 91.0.4472.124","reminder",2,"SS5",28,"Screen 1","response_keyboard",718.200000047684,1,1,1,0,"test_trial","SS5","pred","grocery store.png",1,1,2
"19/07/2021 19:35:57","19/07/2021 14:35:57",56975,3,4297892,"5ef10fcd68a53e4a87ff6e01","Chrome 91.0.4472.124","reminder",2,"SS5",29,"Screen 1","response_keyboard",242.699999988079,4,1,1,0,"test_trial","SS5","pred","grocery store.png",2,4,2
"19/07/2021 19:35:58","19/07/2021 14:35:57",56975,3,4297892,"5ef10fcd68a53e4a87ff6e01","Chrome 91.0.4472.124","reminder",2,"SS5",30,"Screen 1","response_keyboard",298,3,1,1,0,"test_trial","SS5","pred","grocery store.png",3,3,2
"19/07/2021 19:35:59","19/07/2021 14:35:58",56975,3,4297892,"5ef10fcd68a53e4a87ff6e01","Chrome 91.0.4472.124","reminder",2,"SS5",31,"Screen 1","response_keyboard",250.100000023842,4,1,1,0,"test_trial","SS5","pred","grocery store.png",4,4,2
"19/07/2021 19:36:00","19/07/2021 14:35:59",56975,3,4297892,"5ef10fcd68a53e4a87ff6e01","Chrome 91.0.4472.124","reminder",2,"SS5",32,"Screen 1","response_keyboard",202.800000011921,2,1,1,0,"test_trial","SS5","pred","grocery store.png",5,2,2
"19/07/2021 19:36:00","19/07/2021 14:35:59",56975,3,4297892,"5ef10fcd68a53e4a87ff6e01","Chrome 91.0.4472.124","reminder",2,"SS5",33,"Screen 1","response_keyboard",108.099999964237,3,1,1,0,"test_trial","SS5","pred","grocery store.png",6,3,2
"19/07/2021 19:43:46","19/07/2021 15:43:46",56975,3,4297922,"5c3272172f0f3500010284c0","Chrome 87.0.4280.88","reminder",2,"SS1",20,"Screen 1","response_keyboard",2486.0950000002,1,1,1,0,"test_trial","SS1","pred","grocery store.png",1,1,1
"19/07/2021 19:43:47","19/07/2021 15:43:47",56975,3,4297922,"5c3272172f0f3500010284c0","Chrome 87.0.4280.88","reminder",2,"SS1",21,"Screen 1","response_keyboard",688.885000010487,4,1,1,0,"test_trial","SS1","pred","grocery store.png",2,4,1
"19/07/2021 19:43:48","19/07/2021 15:43:48",56975,3,4297922,"5c3272172f0f3500010284c0","Chrome 87.0.4280.88","reminder",2,"SS1",22,"Screen 1","response_keyboard",886.01000001654,3,1,1,0,"test_trial","SS1","pred","grocery store.png",3,3,1
"19/07/2021 19:43:50","19/07/2021 15:43:50",56975,3,4297922,"5c3272172f0f3500010284c0","Chrome 87.0.4280.88","reminder",2,"SS1",23,"Screen 1","response_keyboard",658.434999990277,4,1,1,0,"test_trial","SS1","pred","grocery store.png",4,4,1
"19/07/2021 19:43:51","19/07/2021 15:43:50",56975,3,4297922,"5c3272172f0f3500010284c0","Chrome 87.0.4280.88","reminder",2,"SS1",24,"Screen 1","response_keyboard",344.575000053737,2,1,1,0,"test_trial","SS1","pred","grocery store.png",5,2,1
"19/07/2021 19:43:51","19/07/2021 15:43:51",56975,3,4297922,"5c3272172f0f3500010284c0","Chrome 87.0.4280.88","reminder",2,"SS1",25,"Screen 1","response_keyboard",35.9399999724701,3,1,1,0,"test_trial","SS1","pred","grocery store.png",6,3,1
"19/07/2021 19:43:56","19/07/2021 15:43:56",56975,3,4297922,"5c3272172f0f3500010284c0","Chrome 87.0.4280.88","reminder",2,"SS1",28,"Screen 1","response_keyboard",627.395000017714,1,1,1,0,"test_trial","SS1","pred","grocery store.png",1,1,2
"19/07/2021 19:43:57","19/07/2021 15:43:57",56975,3,4297922,"5c3272172f0f3500010284c0","Chrome 87.0.4280.88","reminder",2,"SS1",29,"Screen 1","response_keyboard",303.710000007413,4,1,1,0,"test_trial","SS1","pred","grocery store.png",2,4,2
"19/07/2021 19:43:58","19/07/2021 15:43:58",56975,3,4297922,"5c3272172f0f3500010284c0","Chrome 87.0.4280.88","reminder",2,"SS1",30,"Screen 1","response_keyboard",262.255000008736,3,1,1,0,"test_trial","SS1","pred","grocery store.png",3,3,2
"19/07/2021 19:43:59","19/07/2021 15:43:59",56975,3,4297922,"5c3272172f0f3500010284c0","Chrome 87.0.4280.88","reminder",2,"SS1",31,"Screen 1","response_keyboard",197.140000003856,4,1,1,0,"test_trial","SS1","pred","grocery store.png",4,4,2
"19/07/2021 19:43:59","19/07/2021 15:43:59",56975,3,4297922,"5c3272172f0f3500010284c0","Chrome 87.0.4280.88","reminder",2,"SS1",32,"Screen 1","response_keyboard",34.5049999887124,2,1,1,0,"test_trial","SS1","pred","grocery store.png",5,2,2
"19/07/2021 19:44:01","19/07/2021 15:44:01",56975,3,4297922,"5c3272172f0f3500010284c0","Chrome 87.0.4280.88","reminder",2,"SS1",33,"Screen 1","response_keyboard",843.894999998156,3,1,1,0,"test_trial","SS1","pred","grocery store.png",6,3,2
"19/07/2021 19:47:57","19/07/2021 14:47:57",56975,3,4297959,"5f57968257f42924fb0f9a15","Firefox 89.0","reminder",2,"SS6",20,"Screen 1","response_keyboard",292,1,1,1,0,"test_trial","SS6","pred","pet store.png",1,1,1
"19/07/2021 19:47:58","19/07/2021 14:47:57",56975,3,4297959,"5f57968257f42924fb0f9a15","Firefox 89.0","reminder",2,"SS6",21,"Screen 1","response_keyboard",176,4,1,1,0,"test_trial","SS6","pred","pet store.png",2,4,1
"19/07/2021 19:47:58","19/07/2021 14:47:58",56975,3,4297959,"5f57968257f42924fb0f9a15","Firefox 89.0","reminder",2,"SS6",22,"Screen 1","response_keyboard",144,3,1,1,0,"test_trial","SS6","pred","pet store.png",3,3,1
"19/07/2021 19:47:59","19/07/2021 14:47:59",56975,3,4297959,"5f57968257f42924fb0f9a15","Firefox 89.0","reminder",2,"SS6",23,"Screen 1","response_keyboard",339,4,1,1,0,"test_trial","SS6","pred","pet store.png",4,4,1
"19/07/2021 19:48:00","19/07/2021 14:47:59",56975,3,4297959,"5f57968257f42924fb0f9a15","Firefox 89.0","reminder",2,"SS6",24,"Screen 1","response_keyboard",208,2,1,1,0,"test_trial","SS6","pred","pet store.png",5,2,1
"19/07/2021 19:48:01","19/07/2021 14:48:00",56975,3,4297959,"5f57968257f42924fb0f9a15","Firefox 89.0","reminder",2,"SS6",25,"Screen 1","response_keyboard",260,3,1,1,0,"test_trial","SS6","pred","pet store.png",6,3,1
"19/07/2021 19:48:06","19/07/2021 14:48:05",56975,3,4297959,"5f57968257f42924fb0f9a15","Firefox 89.0","reminder",2,"SS6",28,"Screen 1","response_keyboard",324,1,1,1,0,"test_trial","SS6","pred","pet store.png",1,1,2
"19/07/2021 19:48:06","19/07/2021 14:48:06",56975,3,4297959,"5f57968257f42924fb0f9a15","Firefox 89.0","reminder",2,"SS6",29,"Screen 1","response_keyboard",291,4,1,1,0,"test_trial","SS6","pred","pet store.png",2,4,2
"19/07/2021 19:48:07","19/07/2021 14:48:07",56975,3,4297959,"5f57968257f42924fb0f9a15","Firefox 89.0","reminder",2,"SS6",30,"Screen 1","response_keyboard",308,3,1,1,0,"test_trial","SS6","pred","pet store.png",3,3,2
"19/07/2021 19:48:08","19/07/2021 14:48:08",56975,3,4297959,"5f57968257f42924fb0f9a15","Firefox 89.0","reminder",2,"SS6",31,"Screen 1","response_keyboard",261,4,1,1,0,"test_trial","SS6","pred","pet store.png",4,4,2
"19/07/2021 19:48:09","19/07/2021 14:48:08",56975,3,4297959,"5f57968257f42924fb0f9a15","Firefox 89.0","reminder",2,"SS6",32,"Screen 1","response_keyboard",215,2,1,1,0,"test_trial","SS6","pred","pet store.png",5,2,2
"19/07/2021 19:48:10","19/07/2021 14:48:09",56975,3,4297959,"5f57968257f42924fb0f9a15","Firefox 89.0","reminder",2,"SS6",33,"Screen 1","response_keyboard",259,3,1,1,0,"test_trial","SS6","pred","pet store.png",6,3,2
"19/07/2021 20:21:23","19/07/2021 13:21:23",56975,3,4298202,"5ab5a51be1546900019b59ff","Chrome 91.0.4472.124","reminder",2,"SS3",20,"Screen 1","response_keyboard",656.600000023842,3,1,1,0,"test_trial","SS3","pred","grocery store.png",1,3,1
"19/07/2021 20:21:24","19/07/2021 13:21:24",56975,3,4298202,"5ab5a51be1546900019b59ff","Chrome 91.0.4472.124","reminder",2,"SS3",21,"Screen 1","response_keyboard",240.600000023842,2,1,1,0,"test_trial","SS3","pred","grocery store.png",2,2,1
"19/07/2021 20:21:24","19/07/2021 13:21:25",56975,3,4298202,"5ab5a51be1546900019b59ff","Chrome 91.0.4472.124","reminder",2,"SS3",22,"Screen 1","response_keyboard",266.5,4,1,1,0,"test_trial","SS3","pred","grocery store.png",3,4,1
"19/07/2021 20:21:25","19/07/2021 13:21:25",56975,3,4298202,"5ab5a51be1546900019b59ff","Chrome 91.0.4472.124","reminder",2,"SS3",23,"Screen 1","response_keyboard",180.600000023842,2,1,1,0,"test_trial","SS3","pred","grocery store.png",4,2,1
"19/07/2021 20:21:26","19/07/2021 13:21:26",56975,3,4298202,"5ab5a51be1546900019b59ff","Chrome 91.0.4472.124","reminder",2,"SS3",24,"Screen 1","response_keyboard",138,1,1,1,0,"test_trial","SS3","pred","grocery store.png",5,1,1
"19/07/2021 20:21:26","19/07/2021 13:21:27",56975,3,4298202,"5ab5a51be1546900019b59ff","Chrome 91.0.4472.124","reminder",2,"SS3",25,"Screen 1","response_keyboard",103.799999952316,4,1,1,0,"test_trial","SS3","pred","grocery store.png",6,4,1
"19/07/2021 20:21:32","19/07/2021 13:21:32",56975,3,4298202,"5ab5a51be1546900019b59ff","Chrome 91.0.4472.124","reminder",2,"SS3",28,"Screen 1","response_keyboard",436.300000011921,3,1,1,0,"test_trial","SS3","pred","grocery store.png",1,3,2
"19/07/2021 20:21:32","19/07/2021 13:21:33",56975,3,4298202,"5ab5a51be1546900019b59ff","Chrome 91.0.4472.124","reminder",2,"SS3",29,"Screen 1","response_keyboard",177.800000011921,2,1,1,0,"test_trial","SS3","pred","grocery store.png",2,2,2
"19/07/2021 20:21:33","19/07/2021 13:21:33",56975,3,4298202,"5ab5a51be1546900019b59ff","Chrome 91.0.4472.124","reminder",2,"SS3",30,"Screen 1","response_keyboard",130.800000011921,4,1,1,0,"test_trial","SS3","pred","grocery store.png",3,4,2
"19/07/2021 20:21:34","19/07/2021 13:21:34",56975,3,4298202,"5ab5a51be1546900019b59ff","Chrome 91.0.4472.124","reminder",2,"SS3",31,"Screen 1","response_keyboard",55.6000000238419,2,1,1,0,"test_trial","SS3","pred","grocery store.png",4,2,2
"19/07/2021 20:21:34","19/07/2021 13:21:35",56975,3,4298202,"5ab5a51be1546900019b59ff","Chrome 91.0.4472.124","reminder",2,"SS3",32,"Screen 1","response_keyboard",79.6000000238419,1,1,1,0,"test_trial","SS3","pred","grocery store.png",5,1,2
"19/07/2021 20:21:35","19/07/2021 13:21:35",56975,3,4298202,"5ab5a51be1546900019b59ff","Chrome 91.0.4472.124","reminder",2,"SS3",33,"Screen 1","response_keyboard",20.3000000119209,4,1,1,0,"test_trial","SS3","pred","grocery store.png",6,4,2
"19/07/2021 20:39:42","19/07/2021 13:39:42",56975,3,4298250,"5caa7f8c0d95570013d82f2f","Chrome 91.0.4472.114","reminder",2,"SS7",20,"Screen 1","response_keyboard",2342.09999999776,3,1,1,0,"test_trial","SS7","pred","grocery store.png",1,3,1
"19/07/2021 20:39:43","19/07/2021 13:39:43",56975,3,4298250,"5caa7f8c0d95570013d82f2f","Chrome 91.0.4472.114","reminder",2,"SS7",21,"Screen 1","response_keyboard",642,2,1,1,0,"test_trial","SS7","pred","grocery store.png",2,2,1
"19/07/2021 20:39:45","19/07/2021 13:39:45",56975,3,4298250,"5caa7f8c0d95570013d82f2f","Chrome 91.0.4472.114","reminder",2,"SS7",22,"Screen 1","response_keyboard",1486.69999999925,4,1,1,0,"test_trial","SS7","pred","grocery store.png",3,4,1
"19/07/2021 20:39:46","19/07/2021 13:39:46",56975,3,4298250,"5caa7f8c0d95570013d82f2f","Chrome 91.0.4472.114","reminder",2,"SS7",23,"Screen 1","response_keyboard",711.29999999702,2,1,1,0,"test_trial","SS7","pred","grocery store.png",4,2,1
"19/07/2021 20:39:48","19/07/2021 13:39:48",56975,3,4298250,"5caa7f8c0d95570013d82f2f","Chrome 91.0.4472.114","reminder",2,"SS7",24,"Screen 1","response_keyboard",788,1,1,1,0,"test_trial","SS7","pred","grocery store.png",5,1,1
"19/07/2021 20:39:49","19/07/2021 13:39:49",56975,3,4298250,"5caa7f8c0d95570013d82f2f","Chrome 91.0.4472.114","reminder",2,"SS7",25,"Screen 1","response_keyboard",596.300000000745,4,1,1,0,"test_trial","SS7","pred","grocery store.png",6,4,1
"19/07/2021 20:39:55","19/07/2021 13:39:55",56975,3,4298250,"5caa7f8c0d95570013d82f2f","Chrome 91.0.4472.114","reminder",2,"SS7",28,"Screen 1","response_keyboard",1167.69999999925,3,1,1,0,"test_trial","SS7","pred","grocery store.png",1,3,2
"19/07/2021 20:39:56","19/07/2021 13:39:56",56975,3,4298250,"5caa7f8c0d95570013d82f2f","Chrome 91.0.4472.114","reminder",2,"SS7",29,"Screen 1","response_keyboard",564.099999997765,2,1,1,0,"test_trial","SS7","pred","grocery store.png",2,2,2
"19/07/2021 20:39:57","19/07/2021 13:39:57",56975,3,4298250,"5caa7f8c0d95570013d82f2f","Chrome 91.0.4472.114","reminder",2,"SS7",30,"Screen 1","response_keyboard",462.5,4,1,1,0,"test_trial","SS7","pred","grocery store.png",3,4,2
"19/07/2021 20:39:58","19/07/2021 13:39:58",56975,3,4298250,"5caa7f8c0d95570013d82f2f","Chrome 91.0.4472.114","reminder",2,"SS7",31,"Screen 1","response_keyboard",392.099999997765,2,1,1,0,"test_trial","SS7","pred","grocery store.png",4,2,2
"19/07/2021 20:39:59","19/07/2021 13:39:59",56975,3,4298250,"5caa7f8c0d95570013d82f2f","Chrome 91.0.4472.114","reminder",2,"SS7",32,"Screen 1","response_keyboard",447.5,1,1,1,0,"test_trial","SS7","pred","grocery store.png",5,1,2
"19/07/2021 20:40:00","19/07/2021 13:40:00",56975,3,4298250,"5caa7f8c0d95570013d82f2f","Chrome 91.0.4472.114","reminder",2,"SS7",33,"Screen 1","response_keyboard",357.699999999255,4,1,1,0,"test_trial","SS7","pred","grocery store.png",6,4,2
"19/07/2021 20:44:23","19/07/2021 15:44:03",56975,3,4298317,"5f4fe42aa8de8e1136e85064","Chrome 91.0.4472.124","reminder",2,"SS5",20,"Screen 1","response_keyboard",929.900000002235,1,1,1,0,"test_trial","SS5","pred","grocery store.png",1,1,1
"19/07/2021 20:44:24","19/07/2021 15:44:04",56975,3,4298317,"5f4fe42aa8de8e1136e85064","Chrome 91.0.4472.124","reminder",2,"SS5",21,"Screen 1","response_keyboard",375,4,1,1,0,"test_trial","SS5","pred","grocery store.png",2,4,1
"19/07/2021 20:44:24","19/07/2021 15:44:05",56975,3,4298317,"5f4fe42aa8de8e1136e85064","Chrome 91.0.4472.124","reminder",2,"SS5",22,"Screen 1","response_keyboard",298.599999997765,3,1,1,0,"test_trial","SS5","pred","grocery store.png",3,3,1
"19/07/2021 20:44:25","19/07/2021 15:44:06",56975,3,4298317,"5f4fe42aa8de8e1136e85064","Chrome 91.0.4472.124","reminder",2,"SS5",23,"Screen 1","response_keyboard",311,4,1,1,0,"test_trial","SS5","pred","grocery store.png",4,4,1
"19/07/2021 20:44:26","19/07/2021 15:44:07",56975,3,4298317,"5f4fe42aa8de8e1136e85064","Chrome 91.0.4472.124","reminder",2,"SS5",24,"Screen 1","response_keyboard",284.800000000745,2,1,1,0,"test_trial","SS5","pred","grocery store.png",5,2,1
"19/07/2021 20:44:27","19/07/2021 15:44:07",56975,3,4298317,"5f4fe42aa8de8e1136e85064","Chrome 91.0.4472.124","reminder",2,"SS5",25,"Screen 1","response_keyboard",248.699999999255,3,1,1,0,"test_trial","SS5","pred","grocery store.png",6,3,1
"19/07/2021 20:44:32","19/07/2021 15:44:13",56975,3,4298317,"5f4fe42aa8de8e1136e85064","Chrome 91.0.4472.124","reminder",2,"SS5",28,"Screen 1","response_keyboard",471.39999999851,1,1,1,0,"test_trial","SS5","pred","grocery store.png",1,1,2
"19/07/2021 20:44:33","19/07/2021 15:44:13",56975,3,4298317,"5f4fe42aa8de8e1136e85064","Chrome 91.0.4472.124","reminder",2,"SS5",29,"Screen 1","response_keyboard",225.39999999851,4,1,1,0,"test_trial","SS5","pred","grocery store.png",2,4,2
"19/07/2021 20:44:34","19/07/2021 15:44:14",56975,3,4298317,"5f4fe42aa8de8e1136e85064","Chrome 91.0.4472.124","reminder",2,"SS5",30,"Screen 1","response_keyboard",291,3,1,1,0,"test_trial","SS5","pred","grocery store.png",3,3,2
"19/07/2021 20:44:34","19/07/2021 15:44:15",56975,3,4298317,"5f4fe42aa8de8e1136e85064","Chrome 91.0.4472.124","reminder",2,"SS5",31,"Screen 1","response_keyboard",215.10000000149,4,1,1,0,"test_trial","SS5","pred","grocery store.png",4,4,2
"19/07/2021 20:44:35","19/07/2021 15:44:16",56975,3,4298317,"5f4fe42aa8de8e1136e85064","Chrome 91.0.4472.124","reminder",2,"SS5",32,"Screen 1","response_keyboard",253.900000002235,2,1,1,0,"test_trial","SS5","pred","grocery store.png",5,2,2
"19/07/2021 20:44:36","19/07/2021 15:44:16",56975,3,4298317,"5f4fe42aa8de8e1136e85064","Chrome 91.0.4472.124","reminder",2,"SS5",33,"Screen 1","response_keyboard",231.5,3,1,1,0,"test_trial","SS5","pred","grocery store.png",6,3,2
"19/07/2021 21:41:53","19/07/2021 14:41:53",56975,3,4298516,"60b471c516aa6d9ce35bbb4d","Chrome 91.0.4472.164","reminder",2,"SS8",20,"Screen 1","response_keyboard",396.199999988079,3,1,1,0,"test_trial","SS8","pred","pet store.png",1,3,1
"19/07/2021 21:41:53","19/07/2021 14:41:54",56975,3,4298516,"60b471c516aa6d9ce35bbb4d","Chrome 91.0.4472.164","reminder",2,"SS8",21,"Screen 1","response_keyboard",38.6999999880791,2,1,1,0,"test_trial","SS8","pred","pet store.png",2,2,1
"19/07/2021 21:41:54","19/07/2021 14:41:54",56975,3,4298516,"60b471c516aa6d9ce35bbb4d","Chrome 91.0.4472.164","reminder",2,"SS8",22,"Screen 1","response_keyboard",32.6999999880791,4,1,1,0,"test_trial","SS8","pred","pet store.png",3,4,1
"19/07/2021 21:41:54","19/07/2021 14:41:55",56975,3,4298516,"60b471c516aa6d9ce35bbb4d","Chrome 91.0.4472.164","reminder",2,"SS8",23,"Screen 1","response_keyboard",65.2000000476837,2,1,1,0,"test_trial","SS8","pred","pet store.png",4,2,1
"19/07/2021 21:41:55","19/07/2021 14:41:55",56975,3,4298516,"60b471c516aa6d9ce35bbb4d","Chrome 91.0.4472.164","reminder",2,"SS8",24,"Screen 1","response_keyboard",72.0999999642372,1,1,1,0,"test_trial","SS8","pred","pet store.png",5,1,1
"19/07/2021 21:41:56","19/07/2021 14:41:56",56975,3,4298516,"60b471c516aa6d9ce35bbb4d","Chrome 91.0.4472.164","reminder",2,"SS8",25,"Screen 1","response_keyboard",22.2999999523163,4,1,1,0,"test_trial","SS8","pred","pet store.png",6,4,1
"19/07/2021 21:42:01","19/07/2021 14:42:01",56975,3,4298516,"60b471c516aa6d9ce35bbb4d","Chrome 91.0.4472.164","reminder",2,"SS8",28,"Screen 1","response_keyboard",374.300000011921,3,1,1,0,"test_trial","SS8","pred","pet store.png",1,3,2
"19/07/2021 21:42:01","19/07/2021 14:42:02",56975,3,4298516,"60b471c516aa6d9ce35bbb4d","Chrome 91.0.4472.164","reminder",2,"SS8",29,"Screen 1","response_keyboard",96.1999999880791,2,1,1,0,"test_trial","SS8","pred","pet store.png",2,2,2
"19/07/2021 21:42:02","19/07/2021 14:42:02",56975,3,4298516,"60b471c516aa6d9ce35bbb4d","Chrome 91.0.4472.164","reminder",2,"SS8",30,"Screen 1","response_keyboard",75.1999999880791,4,1,1,0,"test_trial","SS8","pred","pet store.png",3,4,2
"19/07/2021 21:42:02","19/07/2021 14:42:03",56975,3,4298516,"60b471c516aa6d9ce35bbb4d","Chrome 91.0.4472.164","reminder",2,"SS8",31,"Screen 1","response_keyboard",26.1999999880791,2,1,1,0,"test_trial","SS8","pred","pet store.png",4,2,2
"19/07/2021 21:42:03","19/07/2021 14:42:03",56975,3,4298516,"60b471c516aa6d9ce35bbb4d","Chrome 91.0.4472.164","reminder",2,"SS8",32,"Screen 1","response_keyboard",42,1,1,1,0,"test_trial","SS8","pred","pet store.png",5,1,2
"19/07/2021 21:42:04","19/07/2021 14:42:04",56975,3,4298516,"60b471c516aa6d9ce35bbb4d","Chrome 91.0.4472.164","reminder",2,"SS8",33,"Screen 1","response_keyboard",436.199999988079,4,1,1,0,"test_trial","SS8","pred","pet store.png",6,4,2
"20/07/2021 15:46:35","20/07/2021 11:46:37",56975,3,4304287,"60e65583fee25b800c0b6462","Chrome 87.0.4280.141","reminder",2,"SS8",20,"Screen 1","response_keyboard",1368.95000003278,3,1,1,0,"test_trial","SS8","pred","pet store.png",1,3,1
"20/07/2021 15:46:37","20/07/2021 11:46:39",56975,3,4304287,"60e65583fee25b800c0b6462","Chrome 87.0.4280.141","reminder",2,"SS8",21,"Screen 1","response_keyboard",489.684998989105,2,1,1,0,"test_trial","SS8","pred","pet store.png",2,2,1
"20/07/2021 15:46:38","20/07/2021 11:46:40",56975,3,4304287,"60e65583fee25b800c0b6462","Chrome 87.0.4280.141","reminder",2,"SS8",22,"Screen 1","response_keyboard",532.610001042485,4,1,1,0,"test_trial","SS8","pred","pet store.png",3,4,1
"20/07/2021 15:46:39","20/07/2021 11:46:41",56975,3,4304287,"60e65583fee25b800c0b6462","Chrome 87.0.4280.141","reminder",2,"SS8",23,"Screen 1","response_keyboard",425.760000944138,2,1,1,0,"test_trial","SS8","pred","pet store.png",4,2,1
"20/07/2021 15:46:40","20/07/2021 11:46:42",56975,3,4304287,"60e65583fee25b800c0b6462","Chrome 87.0.4280.141","reminder",2,"SS8",24,"Screen 1","response_keyboard",376.235000789165,1,1,1,0,"test_trial","SS8","pred","pet store.png",5,1,1
"20/07/2021 15:46:40","20/07/2021 11:46:42",56975,3,4304287,"60e65583fee25b800c0b6462","Chrome 87.0.4280.141","reminder",2,"SS8",25,"Screen 1","response_keyboard",245.775001123548,4,1,1,0,"test_trial","SS8","pred","pet store.png",6,4,1
"20/07/2021 15:46:47","20/07/2021 11:46:49",56975,3,4304287,"60e65583fee25b800c0b6462","Chrome 87.0.4280.141","reminder",2,"SS8",28,"Screen 1","response_keyboard",2147.37000130117,3,1,1,0,"test_trial","SS8","pred","pet store.png",1,3,2
"20/07/2021 15:46:48","20/07/2021 11:46:50",56975,3,4304287,"60e65583fee25b800c0b6462","Chrome 87.0.4280.141","reminder",2,"SS8",29,"Screen 1","response_keyboard",325.774999335408,2,1,1,0,"test_trial","SS8","pred","pet store.png",2,2,2
"20/07/2021 15:46:49","20/07/2021 11:46:51",56975,3,4304287,"60e65583fee25b800c0b6462","Chrome 87.0.4280.141","reminder",2,"SS8",30,"Screen 1","response_keyboard",299.499999731779,4,1,1,0,"test_trial","SS8","pred","pet store.png",3,4,2
"20/07/2021 15:46:50","20/07/2021 11:46:52",56975,3,4304287,"60e65583fee25b800c0b6462","Chrome 87.0.4280.141","reminder",2,"SS8",31,"Screen 1","response_keyboard",508.495001122355,2,1,1,0,"test_trial","SS8","pred","pet store.png",4,2,2
"20/07/2021 15:46:51","20/07/2021 11:46:53",56975,3,4304287,"60e65583fee25b800c0b6462","Chrome 87.0.4280.141","reminder",2,"SS8",32,"Screen 1","response_keyboard",243.11999976635,1,1,1,0,"test_trial","SS8","pred","pet store.png",5,1,2
"20/07/2021 15:46:52","20/07/2021 11:46:54",56975,3,4304287,"60e65583fee25b800c0b6462","Chrome 87.0.4280.141","reminder",2,"SS8",33,"Screen 1","response_keyboard",253.239998593926,4,1,1,0,"test_trial","SS8","pred","pet store.png",6,4,2
"20/07/2021 15:49:45","20/07/2021 08:49:46",56975,3,4304260,"60e364349645120ba12a3d70","Chrome 91.0.4472.164","reminder",2,"SS3",20,"Screen 1","response_keyboard",1746.39999997616,3,1,1,0,"test_trial","SS3","pred","grocery store.png",1,3,1
"20/07/2021 15:49:46","20/07/2021 08:49:47",56975,3,4304260,"60e364349645120ba12a3d70","Chrome 91.0.4472.164","reminder",2,"SS3",21,"Screen 1","response_keyboard",310.800000011921,2,1,1,0,"test_trial","SS3","pred","grocery store.png",2,2,1
"20/07/2021 15:49:47","20/07/2021 08:49:48",56975,3,4304260,"60e364349645120ba12a3d70","Chrome 91.0.4472.164","reminder",2,"SS3",22,"Screen 1","response_keyboard",160.699999988079,4,1,1,0,"test_trial","SS3","pred","grocery store.png",3,4,1
"20/07/2021 15:49:48","20/07/2021 08:49:49",56975,3,4304260,"60e364349645120ba12a3d70","Chrome 91.0.4472.164","reminder",2,"SS3",23,"Screen 1","response_keyboard",116.5,2,1,1,0,"test_trial","SS3","pred","grocery store.png",4,2,1
"20/07/2021 15:49:48","20/07/2021 08:49:49",56975,3,4304260,"60e364349645120ba12a3d70","Chrome 91.0.4472.164","reminder",2,"SS3",24,"Screen 1","response_keyboard",138,1,1,1,0,"test_trial","SS3","pred","grocery store.png",5,1,1
"20/07/2021 15:49:49","20/07/2021 08:49:50",56975,3,4304260,"60e364349645120ba12a3d70","Chrome 91.0.4472.164","reminder",2,"SS3",25,"Screen 1","response_keyboard",101.300000011921,4,1,1,0,"test_trial","SS3","pred","grocery store.png",6,4,1
"20/07/2021 15:49:54","20/07/2021 08:49:55",56975,3,4304260,"60e364349645120ba12a3d70","Chrome 91.0.4472.164","reminder",2,"SS3",28,"Screen 1","response_keyboard",578.600000023842,3,1,1,0,"test_trial","SS3","pred","grocery store.png",1,3,2
"20/07/2021 15:49:55","20/07/2021 08:49:56",56975,3,4304260,"60e364349645120ba12a3d70","Chrome 91.0.4472.164","reminder",2,"SS3",29,"Screen 1","response_keyboard",148.400000035763,2,1,1,0,"test_trial","SS3","pred","grocery store.png",2,2,2
"20/07/2021 15:49:56","20/07/2021 08:49:57",56975,3,4304260,"60e364349645120ba12a3d70","Chrome 91.0.4472.164","reminder",2,"SS3",30,"Screen 1","response_keyboard",196.899999976158,4,1,1,0,"test_trial","SS3","pred","grocery store.png",3,4,2
"20/07/2021 15:49:57","20/07/2021 08:49:58",56975,3,4304260,"60e364349645120ba12a3d70","Chrome 91.0.4472.164","reminder",2,"SS3",31,"Screen 1","response_keyboard",192.299999952316,2,1,1,0,"test_trial","SS3","pred","grocery store.png",4,2,2
"20/07/2021 15:49:58","20/07/2021 08:49:59",56975,3,4304260,"60e364349645120ba12a3d70","Chrome 91.0.4472.164","reminder",2,"SS3",32,"Screen 1","response_keyboard",146.800000011921,1,1,1,0,"test_trial","SS3","pred","grocery store.png",5,1,2
"20/07/2021 15:49:58","20/07/2021 08:49:59",56975,3,4304260,"60e364349645120ba12a3d70","Chrome 91.0.4472.164","reminder",2,"SS3",33,"Screen 1","response_keyboard",159.099999964237,4,1,1,0,"test_trial","SS3","pred","grocery store.png",6,4,2
"20/07/2021 15:50:35","20/07/2021 11:50:35",56975,3,4304279,"5cb33d40f173240019513957","Chrome 91.0.4472.164","reminder",2,"SS6",20,"Screen 1","response_keyboard",539.79999999702,1,1,1,0,"test_trial","SS6","pred","pet store.png",1,1,1
"20/07/2021 15:50:35","20/07/2021 11:50:35",56975,3,4304279,"5cb33d40f173240019513957","Chrome 91.0.4472.164","reminder",2,"SS6",21,"Screen 1","response_keyboard",121.10000000149,4,1,1,0,"test_trial","SS6","pred","pet store.png",2,4,1
"20/07/2021 15:50:36","20/07/2021 11:50:36",56975,3,4304279,"5cb33d40f173240019513957","Chrome 91.0.4472.164","reminder",2,"SS6",22,"Screen 1","response_keyboard",1.5,3,1,1,0,"test_trial","SS6","pred","pet store.png",3,3,1
"20/07/2021 15:50:36","20/07/2021 11:50:36",56975,3,4304279,"5cb33d40f173240019513957","Chrome 91.0.4472.164","reminder",2,"SS6",23,"Screen 1","response_keyboard",49.5999999940395,4,1,1,0,"test_trial","SS6","pred","pet store.png",4,4,1
"20/07/2021 15:50:37","20/07/2021 11:50:37",56975,3,4304279,"5cb33d40f173240019513957","Chrome 91.0.4472.164","reminder",2,"SS6",24,"Screen 1","response_keyboard",27.7000000029802,2,1,1,0,"test_trial","SS6","pred","pet store.png",5,2,1
"20/07/2021 15:50:38","20/07/2021 11:50:37",56975,3,4304279,"5cb33d40f173240019513957","Chrome 91.0.4472.164","reminder",2,"SS6",25,"Screen 1","response_keyboard",45.1999999955297,3,1,1,0,"test_trial","SS6","pred","pet store.png",6,3,1
"20/07/2021 15:50:43","20/07/2021 11:50:43",56975,3,4304279,"5cb33d40f173240019513957","Chrome 91.0.4472.164","reminder",2,"SS6",28,"Screen 1","response_keyboard",575.59999999404,1,1,1,0,"test_trial","SS6","pred","pet store.png",1,1,2
"20/07/2021 15:50:44","20/07/2021 11:50:43",56975,3,4304279,"5cb33d40f173240019513957","Chrome 91.0.4472.164","reminder",2,"SS6",29,"Screen 1","response_keyboard",178.60000000149,4,1,1,0,"test_trial","SS6","pred","pet store.png",2,4,2
"20/07/2021 15:50:44","20/07/2021 11:50:44",56975,3,4304279,"5cb33d40f173240019513957","Chrome 91.0.4472.164","reminder",2,"SS6",30,"Screen 1","response_keyboard",47.8000000044703,3,1,1,0,"test_trial","SS6","pred","pet store.png",3,3,2
"20/07/2021 15:50:45","20/07/2021 11:50:45",56975,3,4304279,"5cb33d40f173240019513957","Chrome 91.0.4472.164","reminder",2,"SS6",31,"Screen 1","response_keyboard",624.89999999851,4,1,1,0,"test_trial","SS6","pred","pet store.png",4,4,2
"20/07/2021 15:50:46","20/07/2021 11:50:46",56975,3,4304279,"5cb33d40f173240019513957","Chrome 91.0.4472.164","reminder",2,"SS6",32,"Screen 1","response_keyboard",116,2,1,1,0,"test_trial","SS6","pred","pet store.png",5,2,2
"20/07/2021 15:50:47","20/07/2021 11:50:46",56975,3,4304279,"5cb33d40f173240019513957","Chrome 91.0.4472.164","reminder",2,"SS6",33,"Screen 1","response_keyboard",1.10000000149012,3,1,1,0,"test_trial","SS6","pred","pet store.png",6,3,2
"20/07/2021 17:39:07","20/07/2021 13:39:07",56975,3,4306148,"5efea59344deef3c6ce012b2","Chrome 91.0.4472.124","reminder",2,"SS6",20,"Screen 1","response_keyboard",841.899999999907,1,1,1,0,"test_trial","SS6","pred","pet store.png",1,1,1
"20/07/2021 17:39:07","20/07/2021 13:39:07",56975,3,4306148,"5efea59344deef3c6ce012b2","Chrome 91.0.4472.124","reminder",2,"SS6",21,"Screen 1","response_keyboard",305,4,1,1,0,"test_trial","SS6","pred","pet store.png",2,4,1
"20/07/2021 17:39:08","20/07/2021 13:39:08",56975,3,4306148,"5efea59344deef3c6ce012b2","Chrome 91.0.4472.124","reminder",2,"SS6",22,"Screen 1","response_keyboard",237.899999999907,3,1,1,0,"test_trial","SS6","pred","pet store.png",3,3,1
"20/07/2021 17:39:09","20/07/2021 13:39:09",56975,3,4306148,"5efea59344deef3c6ce012b2","Chrome 91.0.4472.124","reminder",2,"SS6",23,"Screen 1","response_keyboard",160.700000000186,4,1,1,0,"test_trial","SS6","pred","pet store.png",4,4,1
"20/07/2021 17:39:10","20/07/2021 13:39:09",56975,3,4306148,"5efea59344deef3c6ce012b2","Chrome 91.0.4472.124","reminder",2,"SS6",24,"Screen 1","response_keyboard",134.100000000093,2,1,1,0,"test_trial","SS6","pred","pet store.png",5,2,1
"20/07/2021 17:39:10","20/07/2021 13:39:10",56975,3,4306148,"5efea59344deef3c6ce012b2","Chrome 91.0.4472.124","reminder",2,"SS6",25,"Screen 1","response_keyboard",2.09999999962747,3,1,1,0,"test_trial","SS6","pred","pet store.png",6,3,1
"20/07/2021 17:39:15","20/07/2021 13:39:15",56975,3,4306148,"5efea59344deef3c6ce012b2","Chrome 91.0.4472.124","reminder",2,"SS6",28,"Screen 1","response_keyboard",515.100000000093,1,1,1,0,"test_trial","SS6","pred","pet store.png",1,1,2
"20/07/2021 17:39:16","20/07/2021 13:39:16",56975,3,4306148,"5efea59344deef3c6ce012b2","Chrome 91.0.4472.124","reminder",2,"SS6",29,"Screen 1","response_keyboard",177.600000000093,4,1,1,0,"test_trial","SS6","pred","pet store.png",2,4,2
"20/07/2021 17:39:17","20/07/2021 13:39:17",56975,3,4306148,"5efea59344deef3c6ce012b2","Chrome 91.0.4472.124","reminder",2,"SS6",30,"Screen 1","response_keyboard",166.100000000093,2,1,0,0,"test_trial","SS6","pred","pet store.png",3,3,2
"20/07/2021 17:39:21","20/07/2021 13:39:21",56975,3,4306148,"5efea59344deef3c6ce012b2","Chrome 91.0.4472.124","reminder",2,"SS6",31,"Screen 1","response_keyboard",4131,4,1,1,0,"test_trial","SS6","pred","pet store.png",4,4,2
"20/07/2021 17:39:23","20/07/2021 13:39:23",56975,3,4306148,"5efea59344deef3c6ce012b2","Chrome 91.0.4472.124","reminder",2,"SS6",32,"Screen 1","response_keyboard",779,2,1,1,0,"test_trial","SS6","pred","pet store.png",5,2,2
"20/07/2021 17:39:23","20/07/2021 13:39:23",56975,3,4306148,"5efea59344deef3c6ce012b2","Chrome 91.0.4472.124","reminder",2,"SS6",33,"Screen 1","response_keyboard",270.100000000093,3,1,1,0,"test_trial","SS6","pred","pet store.png",6,3,2
"20/07/2021 18:33:57","20/07/2021 11:33:56",56975,3,4306657,"602454a47d0d7d121a1e444b","Chrome 91.0.4472.124","reminder",2,"SS8",20,"Screen 1","response_keyboard",911.399999976158,3,1,1,0,"test_trial","SS8","pred","pet store.png",1,3,1
"20/07/2021 18:33:58","20/07/2021 11:33:57",56975,3,4306657,"602454a47d0d7d121a1e444b","Chrome 91.0.4472.124","reminder",2,"SS8",21,"Screen 1","response_keyboard",262.199999988079,2,1,1,0,"test_trial","SS8","pred","pet store.png",2,2,1
"20/07/2021 18:33:58","20/07/2021 11:33:57",56975,3,4306657,"602454a47d0d7d121a1e444b","Chrome 91.0.4472.124","reminder",2,"SS8",22,"Screen 1","response_keyboard",179.799999952316,4,1,1,0,"test_trial","SS8","pred","pet store.png",3,4,1
"20/07/2021 18:33:59","20/07/2021 11:33:58",56975,3,4306657,"602454a47d0d7d121a1e444b","Chrome 91.0.4472.124","reminder",2,"SS8",23,"Screen 1","response_keyboard",151,2,1,1,0,"test_trial","SS8","pred","pet store.png",4,2,1
"20/07/2021 18:34:00","20/07/2021 11:33:59",56975,3,4306657,"602454a47d0d7d121a1e444b","Chrome 91.0.4472.124","reminder",2,"SS8",24,"Screen 1","response_keyboard",211.800000011921,1,1,1,0,"test_trial","SS8","pred","pet store.png",5,1,1
"20/07/2021 18:34:01","20/07/2021 11:33:59",56975,3,4306657,"602454a47d0d7d121a1e444b","Chrome 91.0.4472.124","reminder",2,"SS8",25,"Screen 1","response_keyboard",178,4,1,1,0,"test_trial","SS8","pred","pet store.png",6,4,1
"20/07/2021 18:34:06","20/07/2021 11:34:05",56975,3,4306657,"602454a47d0d7d121a1e444b","Chrome 91.0.4472.124","reminder",2,"SS8",28,"Screen 1","response_keyboard",735,3,1,1,0,"test_trial","SS8","pred","pet store.png",1,3,2
"20/07/2021 18:34:07","20/07/2021 11:34:06",56975,3,4306657,"602454a47d0d7d121a1e444b","Chrome 91.0.4472.124","reminder",2,"SS8",29,"Screen 1","response_keyboard",219.099999964237,2,1,1,0,"test_trial","SS8","pred","pet store.png",2,2,2
"20/07/2021 18:34:07","20/07/2021 11:34:06",56975,3,4306657,"602454a47d0d7d121a1e444b","Chrome 91.0.4472.124","reminder",2,"SS8",30,"Screen 1","response_keyboard",183.5,4,1,1,0,"test_trial","SS8","pred","pet store.png",3,4,2
"20/07/2021 18:34:08","20/07/2021 11:34:07",56975,3,4306657,"602454a47d0d7d121a1e444b","Chrome 91.0.4472.124","reminder",2,"SS8",31,"Screen 1","response_keyboard",159.800000011921,2,1,1,0,"test_trial","SS8","pred","pet store.png",4,2,2
"20/07/2021 18:34:09","20/07/2021 11:34:08",56975,3,4306657,"602454a47d0d7d121a1e444b","Chrome 91.0.4472.124","reminder",2,"SS8",32,"Screen 1","response_keyboard",136.100000023842,1,1,1,0,"test_trial","SS8","pred","pet store.png",5,1,2
"20/07/2021 18:34:09","20/07/2021 11:34:08",56975,3,4306657,"602454a47d0d7d121a1e444b","Chrome 91.0.4472.124","reminder",2,"SS8",33,"Screen 1","response_keyboard",219.100000023842,4,1,1,0,"test_trial","SS8","pred","pet store.png",6,4,2
"29/07/2021 21:46:11","29/07/2021 16:46:11",56975,3,4378843,"61005a8634c738a44133eeee","Chrome 92.0.4515.107","reminder",2,"SS5",20,"Screen 1","response_keyboard",1016.60000002384,1,1,1,0,"test_trial","SS5","pred","grocery store.png",1,1,1
"29/07/2021 21:46:13","29/07/2021 16:46:11",56975,3,4378843,"61005a8634c738a44133eeee","Chrome 92.0.4515.107","reminder",2,"SS5",21,"Screen 1","response_keyboard",345.699999988079,4,1,1,0,"test_trial","SS5","pred","grocery store.png",2,4,1
"29/07/2021 21:46:14","29/07/2021 16:46:12",56975,3,4378843,"61005a8634c738a44133eeee","Chrome 92.0.4515.107","reminder",2,"SS5",22,"Screen 1","response_keyboard",204.09999999404,3,1,1,0,"test_trial","SS5","pred","grocery store.png",3,3,1
"29/07/2021 21:46:14","29/07/2021 16:46:13",56975,3,4378843,"61005a8634c738a44133eeee","Chrome 92.0.4515.107","reminder",2,"SS5",23,"Screen 1","response_keyboard",52,4,1,1,0,"test_trial","SS5","pred","grocery store.png",4,4,1
"29/07/2021 21:46:14","29/07/2021 16:46:14",56975,3,4378843,"61005a8634c738a44133eeee","Chrome 92.0.4515.107","reminder",2,"SS5",24,"Screen 1","response_keyboard",669,2,1,1,0,"test_trial","SS5","pred","grocery store.png",5,2,1
"29/07/2021 21:46:16","29/07/2021 16:46:15",56975,3,4378843,"61005a8634c738a44133eeee","Chrome 92.0.4515.107","reminder",2,"SS5",25,"Screen 1","response_keyboard",251.59999999404,3,1,1,0,"test_trial","SS5","pred","grocery store.png",6,3,1
"29/07/2021 21:46:22","29/07/2021 16:46:20",56975,3,4378843,"61005a8634c738a44133eeee","Chrome 92.0.4515.107","reminder",2,"SS5",28,"Screen 1","response_keyboard",523.200000017881,1,1,1,0,"test_trial","SS5","pred","grocery store.png",1,1,2
"29/07/2021 21:46:22","29/07/2021 16:46:21",56975,3,4378843,"61005a8634c738a44133eeee","Chrome 92.0.4515.107","reminder",2,"SS5",29,"Screen 1","response_keyboard",216.59999999404,4,1,1,0,"test_trial","SS5","pred","grocery store.png",2,4,2
"29/07/2021 21:46:23","29/07/2021 16:46:22",56975,3,4378843,"61005a8634c738a44133eeee","Chrome 92.0.4515.107","reminder",2,"SS5",30,"Screen 1","response_keyboard",836.199999988079,3,1,1,0,"test_trial","SS5","pred","grocery store.png",3,3,2
"29/07/2021 21:46:24","29/07/2021 16:46:23",56975,3,4378843,"61005a8634c738a44133eeee","Chrome 92.0.4515.107","reminder",2,"SS5",31,"Screen 1","response_keyboard",100.299999982119,4,1,1,0,"test_trial","SS5","pred","grocery store.png",4,4,2
"29/07/2021 21:46:24","29/07/2021 16:46:23",56975,3,4378843,"61005a8634c738a44133eeee","Chrome 92.0.4515.107","reminder",2,"SS5",32,"Screen 1","response_keyboard",112.09999999404,2,1,1,0,"test_trial","SS5","pred","grocery store.png",5,2,2
"29/07/2021 21:46:25","29/07/2021 16:46:24",56975,3,4378843,"61005a8634c738a44133eeee","Chrome 92.0.4515.107","reminder",2,"SS5",33,"Screen 1","response_keyboard",33.4000000059605,3,1,1,0,"test_trial","SS5","pred","grocery store.png",6,3,2
"29/07/2021 21:49:10","29/07/2021 17:49:10",56975,3,4378867,"610049da8150fc6d3e6d6edc","Chrome 92.0.4515.107","reminder",2,"SS2",20,"Screen 1","response_keyboard",553.59999999404,1,1,1,0,"test_trial","SS2","pred","pet store.png",1,1,1
"29/07/2021 21:49:11","29/07/2021 17:49:11",56975,3,4378867,"610049da8150fc6d3e6d6edc","Chrome 92.0.4515.107","reminder",2,"SS2",21,"Screen 1","response_keyboard",330.29999999702,4,1,1,0,"test_trial","SS2","pred","pet store.png",2,4,1
"29/07/2021 21:49:11","29/07/2021 17:49:12",56975,3,4378867,"610049da8150fc6d3e6d6edc","Chrome 92.0.4515.107","reminder",2,"SS2",22,"Screen 1","response_keyboard",262.5,3,1,1,0,"test_trial","SS2","pred","pet store.png",3,3,1
"29/07/2021 21:49:12","29/07/2021 17:49:13",56975,3,4378867,"610049da8150fc6d3e6d6edc","Chrome 92.0.4515.107","reminder",2,"SS2",23,"Screen 1","response_keyboard",268.29999999702,4,1,1,0,"test_trial","SS2","pred","pet store.png",4,4,1
"29/07/2021 21:49:13","29/07/2021 17:49:14",56975,3,4378867,"610049da8150fc6d3e6d6edc","Chrome 92.0.4515.107","reminder",2,"SS2",24,"Screen 1","response_keyboard",411.100000008941,2,1,1,0,"test_trial","SS2","pred","pet store.png",5,2,1
"29/07/2021 21:49:14","29/07/2021 17:49:15",56975,3,4378867,"610049da8150fc6d3e6d6edc","Chrome 92.0.4515.107","reminder",2,"SS2",25,"Screen 1","response_keyboard",289.100000008941,3,1,1,0,"test_trial","SS2","pred","pet store.png",6,3,1
"29/07/2021 21:49:20","29/07/2021 17:49:21",56975,3,4378867,"610049da8150fc6d3e6d6edc","Chrome 92.0.4515.107","reminder",2,"SS2",28,"Screen 1","response_keyboard",1246.69999998808,1,1,1,0,"test_trial","SS2","pred","pet store.png",1,1,2
"29/07/2021 21:49:21","29/07/2021 17:49:22",56975,3,4378867,"610049da8150fc6d3e6d6edc","Chrome 92.0.4515.107","reminder",2,"SS2",29,"Screen 1","response_keyboard",418.5,4,1,1,0,"test_trial","SS2","pred","pet store.png",2,4,2
"29/07/2021 21:49:22","29/07/2021 17:49:23",56975,3,4378867,"610049da8150fc6d3e6d6edc","Chrome 92.0.4515.107","reminder",2,"SS2",30,"Screen 1","response_keyboard",580.800000011921,3,1,1,0,"test_trial","SS2","pred","pet store.png",3,3,2
"29/07/2021 21:49:23","29/07/2021 17:49:24",56975,3,4378867,"610049da8150fc6d3e6d6edc","Chrome 92.0.4515.107","reminder",2,"SS2",31,"Screen 1","response_keyboard",245.29999999702,4,1,1,0,"test_trial","SS2","pred","pet store.png",4,4,2
"29/07/2021 21:49:24","29/07/2021 17:49:25",56975,3,4378867,"610049da8150fc6d3e6d6edc","Chrome 92.0.4515.107","reminder",2,"SS2",32,"Screen 1","response_keyboard",406.79999999702,2,1,1,0,"test_trial","SS2","pred","pet store.png",5,2,2
"29/07/2021 21:49:25","29/07/2021 17:49:26",56975,3,4378867,"610049da8150fc6d3e6d6edc","Chrome 92.0.4515.107","reminder",2,"SS2",33,"Screen 1","response_keyboard",376.79999999702,3,1,1,0,"test_trial","SS2","pred","pet store.png",6,3,2
"29/07/2021 21:52:26","29/07/2021 16:52:25",56975,3,4378955,"607f1fa0ec24246f9ddb21b0","Firefox 90.0","reminder",2,"SS7",20,"Screen 1","response_keyboard",684,3,1,1,0,"test_trial","SS7","pred","grocery store.png",1,3,1
"29/07/2021 21:52:27","29/07/2021 16:52:27",56975,3,4378955,"607f1fa0ec24246f9ddb21b0","Firefox 90.0","reminder",2,"SS7",21,"Screen 1","response_keyboard",769,2,1,1,0,"test_trial","SS7","pred","grocery store.png",2,2,1
"29/07/2021 21:52:28","29/07/2021 16:52:28",56975,3,4378955,"607f1fa0ec24246f9ddb21b0","Firefox 90.0","reminder",2,"SS7",22,"Screen 1","response_keyboard",728,4,1,1,0,"test_trial","SS7","pred","grocery store.png",3,4,1
"29/07/2021 21:52:30","29/07/2021 16:52:29",56975,3,4378955,"607f1fa0ec24246f9ddb21b0","Firefox 90.0","reminder",2,"SS7",23,"Screen 1","response_keyboard",720,2,1,1,0,"test_trial","SS7","pred","grocery store.png",4,2,1
"29/07/2021 21:52:31","29/07/2021 16:52:30",56975,3,4378955,"607f1fa0ec24246f9ddb21b0","Firefox 90.0","reminder",2,"SS7",24,"Screen 1","response_keyboard",545,1,1,1,0,"test_trial","SS7","pred","grocery store.png",5,1,1
"29/07/2021 21:52:32","29/07/2021 16:52:31",56975,3,4378955,"607f1fa0ec24246f9ddb21b0","Firefox 90.0","reminder",2,"SS7",25,"Screen 1","response_keyboard",695,4,1,1,0,"test_trial","SS7","pred","grocery store.png",6,4,1
"29/07/2021 21:52:39","29/07/2021 16:52:38",56975,3,4378955,"607f1fa0ec24246f9ddb21b0","Firefox 90.0","reminder",2,"SS7",28,"Screen 1","response_keyboard",2154,3,1,1,0,"test_trial","SS7","pred","grocery store.png",1,3,2
"29/07/2021 21:52:40","29/07/2021 16:52:39",56975,3,4378955,"607f1fa0ec24246f9ddb21b0","Firefox 90.0","reminder",2,"SS7",29,"Screen 1","response_keyboard",650,2,1,1,0,"test_trial","SS7","pred","grocery store.png",2,2,2
"29/07/2021 21:52:41","29/07/2021 16:52:40",56975,3,4378955,"607f1fa0ec24246f9ddb21b0","Firefox 90.0","reminder",2,"SS7",30,"Screen 1","response_keyboard",513,4,1,1,0,"test_trial","SS7","pred","grocery store.png",3,4,2
"29/07/2021 21:52:42","29/07/2021 16:52:41",56975,3,4378955,"607f1fa0ec24246f9ddb21b0","Firefox 90.0","reminder",2,"SS7",31,"Screen 1","response_keyboard",536,2,1,1,0,"test_trial","SS7","pred","grocery store.png",4,2,2
"29/07/2021 21:52:43","29/07/2021 16:52:43",56975,3,4378955,"607f1fa0ec24246f9ddb21b0","Firefox 90.0","reminder",2,"SS7",32,"Screen 1","response_keyboard",709,1,1,1,0,"test_trial","SS7","pred","grocery store.png",5,1,2
"29/07/2021 21:52:44","29/07/2021 16:52:44",56975,3,4378955,"607f1fa0ec24246f9ddb21b0","Firefox 90.0","reminder",2,"SS7",33,"Screen 1","response_keyboard",480,4,1,1,0,"test_trial","SS7","pred","grocery store.png",6,4,2
"29/07/2021 21:54:41","29/07/2021 17:54:41",56975,3,4378964,"6100dba1b4dd8f65ce74b530","Chrome 91.0.4472.164","reminder",2,"SS4",20,"Screen 1","response_keyboard",471.30000000447,3,1,1,0,"test_trial","SS4","pred","pet store.png",1,3,1
"29/07/2021 21:54:43","29/07/2021 17:54:42",56975,3,4378964,"6100dba1b4dd8f65ce74b530","Chrome 91.0.4472.164","reminder",2,"SS4",21,"Screen 1","response_keyboard",860.29999999702,2,1,1,0,"test_trial","SS4","pred","pet store.png",2,2,1
"29/07/2021 21:54:44","29/07/2021 17:54:44",56975,3,4378964,"6100dba1b4dd8f65ce74b530","Chrome 91.0.4472.164","reminder",2,"SS4",22,"Screen 1","response_keyboard",653.89999999851,4,1,1,0,"test_trial","SS4","pred","pet store.png",3,4,1
"29/07/2021 21:54:45","29/07/2021 17:54:45",56975,3,4378964,"6100dba1b4dd8f65ce74b530","Chrome 91.0.4472.164","reminder",2,"SS4",23,"Screen 1","response_keyboard",486.10000000149,2,1,1,0,"test_trial","SS4","pred","pet store.png",4,2,1
"29/07/2021 21:54:46","29/07/2021 17:54:46",56975,3,4378964,"6100dba1b4dd8f65ce74b530","Chrome 91.0.4472.164","reminder",2,"SS4",24,"Screen 1","response_keyboard",528.10000000149,1,1,1,0,"test_trial","SS4","pred","pet store.png",5,1,1
"29/07/2021 21:54:47","29/07/2021 17:54:47",56975,3,4378964,"6100dba1b4dd8f65ce74b530","Chrome 91.0.4472.164","reminder",2,"SS4",25,"Screen 1","response_keyboard",513.29999999702,4,1,1,0,"test_trial","SS4","pred","pet store.png",6,4,1
"29/07/2021 21:54:52","29/07/2021 17:54:52",56975,3,4378964,"6100dba1b4dd8f65ce74b530","Chrome 91.0.4472.164","reminder",2,"SS4",28,"Screen 1","response_keyboard",662.60000000149,3,1,1,0,"test_trial","SS4","pred","pet store.png",1,3,2
"29/07/2021 21:54:53","29/07/2021 17:54:53",56975,3,4378964,"6100dba1b4dd8f65ce74b530","Chrome 91.0.4472.164","reminder",2,"SS4",29,"Screen 1","response_keyboard",496.59999999404,2,1,1,0,"test_trial","SS4","pred","pet store.png",2,2,2
"29/07/2021 21:54:54","29/07/2021 17:54:54",56975,3,4378964,"6100dba1b4dd8f65ce74b530","Chrome 91.0.4472.164","reminder",2,"SS4",30,"Screen 1","response_keyboard",485.19999999553,4,1,1,0,"test_trial","SS4","pred","pet store.png",3,4,2
"29/07/2021 21:54:55","29/07/2021 17:54:55",56975,3,4378964,"6100dba1b4dd8f65ce74b530","Chrome 91.0.4472.164","reminder",2,"SS4",31,"Screen 1","response_keyboard",536.60000000149,2,1,1,0,"test_trial","SS4","pred","pet store.png",4,2,2
"29/07/2021 21:54:56","29/07/2021 17:54:56",56975,3,4378964,"6100dba1b4dd8f65ce74b530","Chrome 91.0.4472.164","reminder",2,"SS4",32,"Screen 1","response_keyboard",464.19999999553,1,1,1,0,"test_trial","SS4","pred","pet store.png",5,1,2
"29/07/2021 21:54:57","29/07/2021 17:54:57",56975,3,4378964,"6100dba1b4dd8f65ce74b530","Chrome 91.0.4472.164","reminder",2,"SS4",33,"Screen 1","response_keyboard",459.70000000298,4,1,1,0,"test_trial","SS4","pred","pet store.png",6,4,2
"29/07/2021 21:55:00","29/07/2021 14:55:00",56975,3,4378879,"610048e961510604e3dd8705","Safari 14.1.2","reminder",2,"SS3",20,"Screen 1","response_keyboard",763,3,1,1,0,"test_trial","SS3","pred","grocery store.png",1,3,1
"29/07/2021 21:55:01","29/07/2021 14:55:01",56975,3,4378879,"610048e961510604e3dd8705","Safari 14.1.2","reminder",2,"SS3",21,"Screen 1","response_keyboard",39.0000000000073,2,1,1,0,"test_trial","SS3","pred","grocery store.png",2,2,1
"29/07/2021 21:55:02","29/07/2021 14:55:02",56975,3,4378879,"610048e961510604e3dd8705","Safari 14.1.2","reminder",2,"SS3",22,"Screen 1","response_keyboard",204,4,1,1,0,"test_trial","SS3","pred","grocery store.png",3,4,1
"29/07/2021 21:55:05","29/07/2021 14:55:05",56975,3,4378879,"610048e961510604e3dd8705","Safari 14.1.2","reminder",2,"SS3",23,"Screen 1","response_keyboard",3218,2,1,1,0,"test_trial","SS3","pred","grocery store.png",4,2,1
"29/07/2021 21:55:06","29/07/2021 14:55:06",56975,3,4378879,"610048e961510604e3dd8705","Safari 14.1.2","reminder",2,"SS3",24,"Screen 1","response_keyboard",486.000000000007,1,1,1,0,"test_trial","SS3","pred","grocery store.png",5,1,1
"29/07/2021 21:55:07","29/07/2021 14:55:07",56975,3,4378879,"610048e961510604e3dd8705","Safari 14.1.2","reminder",2,"SS3",25,"Screen 1","response_keyboard",508,4,1,1,0,"test_trial","SS3","pred","grocery store.png",6,4,1
"29/07/2021 21:55:13","29/07/2021 14:55:13",56975,3,4378879,"610048e961510604e3dd8705","Safari 14.1.2","reminder",2,"SS3",28,"Screen 1","response_keyboard",782,3,1,1,0,"test_trial","SS3","pred","grocery store.png",1,3,2
"29/07/2021 21:55:14","29/07/2021 14:55:14",56975,3,4378879,"610048e961510604e3dd8705","Safari 14.1.2","reminder",2,"SS3",29,"Screen 1","response_keyboard",339,2,1,1,0,"test_trial","SS3","pred","grocery store.png",2,2,2
"29/07/2021 21:55:15","29/07/2021 14:55:15",56975,3,4378879,"610048e961510604e3dd8705","Safari 14.1.2","reminder",2,"SS3",30,"Screen 1","response_keyboard",284.999999999985,4,1,1,0,"test_trial","SS3","pred","grocery store.png",3,4,2
"29/07/2021 21:55:16","29/07/2021 14:55:16",56975,3,4378879,"610048e961510604e3dd8705","Safari 14.1.2","reminder",2,"SS3",31,"Screen 1","response_keyboard",364,2,1,1,0,"test_trial","SS3","pred","grocery store.png",4,2,2
"29/07/2021 21:55:16","29/07/2021 14:55:16",56975,3,4378879,"610048e961510604e3dd8705","Safari 14.1.2","reminder",2,"SS3",32,"Screen 1","response_keyboard",362,1,1,1,0,"test_trial","SS3","pred","grocery store.png",5,1,2
"29/07/2021 21:55:17","29/07/2021 14:55:17",56975,3,4378879,"610048e961510604e3dd8705","Safari 14.1.2","reminder",2,"SS3",33,"Screen 1","response_keyboard",392,4,1,1,0,"test_trial","SS3","pred","grocery store.png",6,4,2
"29/07/2021 21:54:49","29/07/2021 16:54:49",56975,3,4378951,"61023e0830e893bec6bd8f3c","Chrome 92.0.4515.107","reminder",2,"SS4",20,"Screen 1","response_keyboard",760.699999988079,3,1,1,0,"test_trial","SS4","pred","pet store.png",1,3,1
"29/07/2021 21:54:51","29/07/2021 16:54:50",56975,3,4378951,"61023e0830e893bec6bd8f3c","Chrome 92.0.4515.107","reminder",2,"SS4",21,"Screen 1","response_keyboard",616.800000011921,2,1,1,0,"test_trial","SS4","pred","pet store.png",2,2,1
"29/07/2021 21:54:52","29/07/2021 16:54:51",56975,3,4378951,"61023e0830e893bec6bd8f3c","Chrome 92.0.4515.107","reminder",2,"SS4",22,"Screen 1","response_keyboard",627.399999976158,4,1,1,0,"test_trial","SS4","pred","pet store.png",3,4,1
"29/07/2021 21:54:53","29/07/2021 16:54:52",56975,3,4378951,"61023e0830e893bec6bd8f3c","Chrome 92.0.4515.107","reminder",2,"SS4",23,"Screen 1","response_keyboard",608.899999976158,2,1,1,0,"test_trial","SS4","pred","pet store.png",4,2,1
"29/07/2021 21:54:54","29/07/2021 16:54:53",56975,3,4378951,"61023e0830e893bec6bd8f3c","Chrome 92.0.4515.107","reminder",2,"SS4",24,"Screen 1","response_keyboard",705.800000011921,1,1,1,0,"test_trial","SS4","pred","pet store.png",5,1,1
"29/07/2021 21:54:55","29/07/2021 16:54:55",56975,3,4378951,"61023e0830e893bec6bd8f3c","Chrome 92.0.4515.107","reminder",2,"SS4",25,"Screen 1","response_keyboard",728.800000011921,4,1,1,0,"test_trial","SS4","pred","pet store.png",6,4,1
"29/07/2021 21:55:01","29/07/2021 16:55:00",56975,3,4378951,"61023e0830e893bec6bd8f3c","Chrome 92.0.4515.107","reminder",2,"SS4",28,"Screen 1","response_keyboard",735.699999988079,3,1,1,0,"test_trial","SS4","pred","pet store.png",1,3,2
"29/07/2021 21:55:02","29/07/2021 16:55:01",56975,3,4378951,"61023e0830e893bec6bd8f3c","Chrome 92.0.4515.107","reminder",2,"SS4",29,"Screen 1","response_keyboard",686,2,1,1,0,"test_trial","SS4","pred","pet store.png",2,2,2
"29/07/2021 21:55:03","29/07/2021 16:55:02",56975,3,4378951,"61023e0830e893bec6bd8f3c","Chrome 92.0.4515.107","reminder",2,"SS4",30,"Screen 1","response_keyboard",585.800000011921,4,1,1,0,"test_trial","SS4","pred","pet store.png",3,4,2
"29/07/2021 21:55:05","29/07/2021 16:55:04",56975,3,4378951,"61023e0830e893bec6bd8f3c","Chrome 92.0.4515.107","reminder",2,"SS4",31,"Screen 1","response_keyboard",647,2,1,1,0,"test_trial","SS4","pred","pet store.png",4,2,2
"29/07/2021 21:55:06","29/07/2021 16:55:05",56975,3,4378951,"61023e0830e893bec6bd8f3c","Chrome 92.0.4515.107","reminder",2,"SS4",32,"Screen 1","response_keyboard",598.199999988079,1,1,1,0,"test_trial","SS4","pred","pet store.png",5,1,2
"29/07/2021 21:55:07","29/07/2021 16:55:06",56975,3,4378951,"61023e0830e893bec6bd8f3c","Chrome 92.0.4515.107","reminder",2,"SS4",33,"Screen 1","response_keyboard",578.399999976158,4,1,1,0,"test_trial","SS4","pred","pet store.png",6,4,2
"29/07/2021 21:54:56","29/07/2021 14:54:55",56975,3,4378968,"60fcc79a2291d286eae03c2c","Chrome 92.0.4515.107","reminder",2,"SS6",20,"Screen 1","response_keyboard",599.10000000149,1,1,1,0,"test_trial","SS6","pred","pet store.png",1,1,1
"29/07/2021 21:54:56","29/07/2021 14:54:56",56975,3,4378968,"60fcc79a2291d286eae03c2c","Chrome 92.0.4515.107","reminder",2,"SS6",21,"Screen 1","response_keyboard",363.70000000298,4,1,1,0,"test_trial","SS6","pred","pet store.png",2,4,1
"29/07/2021 21:54:58","29/07/2021 14:54:57",56975,3,4378968,"60fcc79a2291d286eae03c2c","Chrome 92.0.4515.107","reminder",2,"SS6",22,"Screen 1","response_keyboard",585,3,1,1,0,"test_trial","SS6","pred","pet store.png",3,3,1
"29/07/2021 21:54:59","29/07/2021 14:54:59",56975,3,4378968,"60fcc79a2291d286eae03c2c","Chrome 92.0.4515.107","reminder",2,"SS6",23,"Screen 1","response_keyboard",629.70000000298,4,1,1,0,"test_trial","SS6","pred","pet store.png",4,4,1
"29/07/2021 21:55:00","29/07/2021 14:54:59",56975,3,4378968,"60fcc79a2291d286eae03c2c","Chrome 92.0.4515.107","reminder",2,"SS6",24,"Screen 1","response_keyboard",431.70000000298,2,1,1,0,"test_trial","SS6","pred","pet store.png",5,2,1
"29/07/2021 21:55:01","29/07/2021 14:55:00",56975,3,4378968,"60fcc79a2291d286eae03c2c","Chrome 92.0.4515.107","reminder",2,"SS6",25,"Screen 1","response_keyboard",469.19999999553,3,1,1,0,"test_trial","SS6","pred","pet store.png",6,3,1
"29/07/2021 21:55:06","29/07/2021 14:55:06",56975,3,4378968,"60fcc79a2291d286eae03c2c","Chrome 92.0.4515.107","reminder",2,"SS6",28,"Screen 1","response_keyboard",476.10000000149,1,1,1,0,"test_trial","SS6","pred","pet store.png",1,1,2
"29/07/2021 21:55:07","29/07/2021 14:55:07",56975,3,4378968,"60fcc79a2291d286eae03c2c","Chrome 92.0.4515.107","reminder",2,"SS6",29,"Screen 1","response_keyboard",313.60000000149,4,1,1,0,"test_trial","SS6","pred","pet store.png",2,4,2
"29/07/2021 21:55:08","29/07/2021 14:55:07",56975,3,4378968,"60fcc79a2291d286eae03c2c","Chrome 92.0.4515.107","reminder",2,"SS6",30,"Screen 1","response_keyboard",380.5,3,1,1,0,"test_trial","SS6","pred","pet store.png",3,3,2
"29/07/2021 21:55:08","29/07/2021 14:55:08",56975,3,4378968,"60fcc79a2291d286eae03c2c","Chrome 92.0.4515.107","reminder",2,"SS6",31,"Screen 1","response_keyboard",313,4,1,1,0,"test_trial","SS6","pred","pet store.png",4,4,2
"29/07/2021 21:55:09","29/07/2021 14:55:09",56975,3,4378968,"60fcc79a2291d286eae03c2c","Chrome 92.0.4515.107","reminder",2,"SS6",32,"Screen 1","response_keyboard",315.30000000447,2,1,1,0,"test_trial","SS6","pred","pet store.png",5,2,2
"29/07/2021 21:55:10","29/07/2021 14:55:10",56975,3,4378968,"60fcc79a2291d286eae03c2c","Chrome 92.0.4515.107","reminder",2,"SS6",33,"Screen 1","response_keyboard",337,3,1,1,0,"test_trial","SS6","pred","pet store.png",6,3,2
"29/07/2021 21:54:58","29/07/2021 17:54:59",56975,3,4378948,"6101d3dd8a5037f20dfc505f","Chrome 92.0.4515.107","reminder",2,"SS5",20,"Screen 1","response_keyboard",1010.80000007153,1,1,1,0,"test_trial","SS5","pred","grocery store.png",1,1,1
"29/07/2021 21:54:59","29/07/2021 17:55:00",56975,3,4378948,"6101d3dd8a5037f20dfc505f","Chrome 92.0.4515.107","reminder",2,"SS5",21,"Screen 1","response_keyboard",521.5,4,1,1,0,"test_trial","SS5","pred","grocery store.png",2,4,1
"29/07/2021 21:55:01","29/07/2021 17:55:01",56975,3,4378948,"6101d3dd8a5037f20dfc505f","Chrome 92.0.4515.107","reminder",2,"SS5",22,"Screen 1","response_keyboard",612.300000071526,3,1,1,0,"test_trial","SS5","pred","grocery store.png",3,3,1
"29/07/2021 21:55:02","29/07/2021 17:55:03",56975,3,4378948,"6101d3dd8a5037f20dfc505f","Chrome 92.0.4515.107","reminder",2,"SS5",23,"Screen 1","response_keyboard",596.5,4,1,1,0,"test_trial","SS5","pred","grocery store.png",4,4,1
"29/07/2021 21:55:03","29/07/2021 17:55:04",56975,3,4378948,"6101d3dd8a5037f20dfc505f","Chrome 92.0.4515.107","reminder",2,"SS5",24,"Screen 1","response_keyboard",643,2,1,1,0,"test_trial","SS5","pred","grocery store.png",5,2,1
"29/07/2021 21:55:04","29/07/2021 17:55:05",56975,3,4378948,"6101d3dd8a5037f20dfc505f","Chrome 92.0.4515.107","reminder",2,"SS5",25,"Screen 1","response_keyboard",494.100000023842,3,1,1,0,"test_trial","SS5","pred","grocery store.png",6,3,1
"29/07/2021 21:55:09","29/07/2021 17:55:10",56975,3,4378948,"6101d3dd8a5037f20dfc505f","Chrome 92.0.4515.107","reminder",2,"SS5",28,"Screen 1","response_keyboard",807,1,1,1,0,"test_trial","SS5","pred","grocery store.png",1,1,2
"29/07/2021 21:55:10","29/07/2021 17:55:12",56975,3,4378948,"6101d3dd8a5037f20dfc505f","Chrome 92.0.4515.107","reminder",2,"SS5",29,"Screen 1","response_keyboard",592.699999928474,4,1,1,0,"test_trial","SS5","pred","grocery store.png",2,4,2
"29/07/2021 21:55:12","29/07/2021 17:55:13",56975,3,4378948,"6101d3dd8a5037f20dfc505f","Chrome 92.0.4515.107","reminder",2,"SS5",30,"Screen 1","response_keyboard",636.299999952316,3,1,1,0,"test_trial","SS5","pred","grocery store.png",3,3,2
"29/07/2021 21:55:13","29/07/2021 17:55:14",56975,3,4378948,"6101d3dd8a5037f20dfc505f","Chrome 92.0.4515.107","reminder",2,"SS5",31,"Screen 1","response_keyboard",573.600000023842,4,1,1,0,"test_trial","SS5","pred","grocery store.png",4,4,2
"29/07/2021 21:55:14","29/07/2021 17:55:15",56975,3,4378948,"6101d3dd8a5037f20dfc505f","Chrome 92.0.4515.107","reminder",2,"SS5",32,"Screen 1","response_keyboard",650.100000023842,2,1,1,0,"test_trial","SS5","pred","grocery store.png",5,2,2
"29/07/2021 21:55:15","29/07/2021 17:55:16",56975,3,4378948,"6101d3dd8a5037f20dfc505f","Chrome 92.0.4515.107","reminder",2,"SS5",33,"Screen 1","response_keyboard",491.800000071526,3,1,1,0,"test_trial","SS5","pred","grocery store.png",6,3,2
"29/07/2021 21:55:24","29/07/2021 17:55:21",56975,3,4378930,"6100496a0ef6706b8895cbf7","Chrome 91.0.4472.114","reminder",2,"SS8",20,"Screen 1","response_keyboard",853.400000035763,3,1,1,0,"test_trial","SS8","pred","pet store.png",1,3,1
"29/07/2021 21:55:26","29/07/2021 17:55:23",56975,3,4378930,"6100496a0ef6706b8895cbf7","Chrome 91.0.4472.114","reminder",2,"SS8",21,"Screen 1","response_keyboard",1201.5,2,1,1,0,"test_trial","SS8","pred","pet store.png",2,2,1
"29/07/2021 21:55:27","29/07/2021 17:55:24",56975,3,4378930,"6100496a0ef6706b8895cbf7","Chrome 91.0.4472.114","reminder",2,"SS8",22,"Screen 1","response_keyboard",512.5,4,1,1,0,"test_trial","SS8","pred","pet store.png",3,4,1
"29/07/2021 21:55:28","29/07/2021 17:55:25",56975,3,4378930,"6100496a0ef6706b8895cbf7","Chrome 91.0.4472.114","reminder",2,"SS8",23,"Screen 1","response_keyboard",578.699999988079,2,1,1,0,"test_trial","SS8","pred","pet store.png",4,2,1
"29/07/2021 21:55:29","29/07/2021 17:55:26",56975,3,4378930,"6100496a0ef6706b8895cbf7","Chrome 91.0.4472.114","reminder",2,"SS8",24,"Screen 1","response_keyboard",481.200000047684,1,1,1,0,"test_trial","SS8","pred","pet store.png",5,1,1
"29/07/2021 21:55:30","29/07/2021 17:55:27",56975,3,4378930,"6100496a0ef6706b8895cbf7","Chrome 91.0.4472.114","reminder",2,"SS8",25,"Screen 1","response_keyboard",386.800000011921,4,1,1,0,"test_trial","SS8","pred","pet store.png",6,4,1
"29/07/2021 21:55:35","29/07/2021 17:55:32",56975,3,4378930,"6100496a0ef6706b8895cbf7","Chrome 91.0.4472.114","reminder",2,"SS8",28,"Screen 1","response_keyboard",715.400000035763,3,1,1,0,"test_trial","SS8","pred","pet store.png",1,3,2
"29/07/2021 21:55:36","29/07/2021 17:55:34",56975,3,4378930,"6100496a0ef6706b8895cbf7","Chrome 91.0.4472.114","reminder",2,"SS8",29,"Screen 1","response_keyboard",758.799999952316,2,1,1,0,"test_trial","SS8","pred","pet store.png",2,2,2
"29/07/2021 21:55:37","29/07/2021 17:55:34",56975,3,4378930,"6100496a0ef6706b8895cbf7","Chrome 91.0.4472.114","reminder",2,"SS8",30,"Screen 1","response_keyboard",158.399999976158,4,1,1,0,"test_trial","SS8","pred","pet store.png",3,4,2
"29/07/2021 21:55:38","29/07/2021 17:55:35",56975,3,4378930,"6100496a0ef6706b8895cbf7","Chrome 91.0.4472.114","reminder",2,"SS8",31,"Screen 1","response_keyboard",195.100000023842,2,1,1,0,"test_trial","SS8","pred","pet store.png",4,2,2
"29/07/2021 21:55:39","29/07/2021 17:55:36",56975,3,4378930,"6100496a0ef6706b8895cbf7","Chrome 91.0.4472.114","reminder",2,"SS8",32,"Screen 1","response_keyboard",137.399999976158,1,1,1,0,"test_trial","SS8","pred","pet store.png",5,1,2
"29/07/2021 21:55:39","29/07/2021 17:55:36",56975,3,4378930,"6100496a0ef6706b8895cbf7","Chrome 91.0.4472.114","reminder",2,"SS8",33,"Screen 1","response_keyboard",73.5,4,1,1,0,"test_trial","SS8","pred","pet store.png",6,4,2
"29/07/2021 21:57:00","29/07/2021 16:57:00",56975,3,4378995,"60feef9e0d6f0bd38cf36f97","Safari 14.0.2","reminder",2,"SS1",20,"Screen 1","response_keyboard",2189,1,1,1,0,"test_trial","SS1","pred","grocery store.png",1,1,1
"29/07/2021 21:57:01","29/07/2021 16:57:01",56975,3,4378995,"60feef9e0d6f0bd38cf36f97","Safari 14.0.2","reminder",2,"SS1",21,"Screen 1","response_keyboard",751,4,1,1,0,"test_trial","SS1","pred","grocery store.png",2,4,1
"29/07/2021 21:57:02","29/07/2021 16:57:02",56975,3,4378995,"60feef9e0d6f0bd38cf36f97","Safari 14.0.2","reminder",2,"SS1",22,"Screen 1","response_keyboard",535,3,1,1,0,"test_trial","SS1","pred","grocery store.png",3,3,1
"29/07/2021 21:57:04","29/07/2021 16:57:03",56975,3,4378995,"60feef9e0d6f0bd38cf36f97","Safari 14.0.2","reminder",2,"SS1",23,"Screen 1","response_keyboard",576,4,1,1,0,"test_trial","SS1","pred","grocery store.png",4,4,1
"29/07/2021 21:57:05","29/07/2021 16:57:05",56975,3,4378995,"60feef9e0d6f0bd38cf36f97","Safari 14.0.2","reminder",2,"SS1",24,"Screen 1","response_keyboard",677.000000000007,2,1,1,0,"test_trial","SS1","pred","grocery store.png",5,2,1
"29/07/2021 21:57:06","29/07/2021 16:57:06",56975,3,4378995,"60feef9e0d6f0bd38cf36f97","Safari 14.0.2","reminder",2,"SS1",25,"Screen 1","response_keyboard",457.000000000007,3,1,1,0,"test_trial","SS1","pred","grocery store.png",6,3,1
"29/07/2021 21:57:11","29/07/2021 16:57:11",56975,3,4378995,"60feef9e0d6f0bd38cf36f97","Safari 14.0.2","reminder",2,"SS1",28,"Screen 1","response_keyboard",734,1,1,1,0,"test_trial","SS1","pred","grocery store.png",1,1,2
"29/07/2021 21:57:12","29/07/2021 16:57:12",56975,3,4378995,"60feef9e0d6f0bd38cf36f97","Safari 14.0.2","reminder",2,"SS1",29,"Screen 1","response_keyboard",323,4,1,1,0,"test_trial","SS1","pred","grocery store.png",2,4,2
"29/07/2021 21:57:13","29/07/2021 16:57:13",56975,3,4378995,"60feef9e0d6f0bd38cf36f97","Safari 14.0.2","reminder",2,"SS1",30,"Screen 1","response_keyboard",286,3,1,1,0,"test_trial","SS1","pred","grocery store.png",3,3,2
"29/07/2021 21:57:14","29/07/2021 16:57:13",56975,3,4378995,"60feef9e0d6f0bd38cf36f97","Safari 14.0.2","reminder",2,"SS1",31,"Screen 1","response_keyboard",88,4,1,1,0,"test_trial","SS1","pred","grocery store.png",4,4,2
"29/07/2021 21:57:14","29/07/2021 16:57:14",56975,3,4378995,"60feef9e0d6f0bd38cf36f97","Safari 14.0.2","reminder",2,"SS1",32,"Screen 1","response_keyboard",142,2,1,1,0,"test_trial","SS1","pred","grocery store.png",5,2,2
"29/07/2021 21:57:15","29/07/2021 16:57:15",56975,3,4378995,"60feef9e0d6f0bd38cf36f97","Safari 14.0.2","reminder",2,"SS1",33,"Screen 1","response_keyboard",81,3,1,1,0,"test_trial","SS1","pred","grocery store.png",6,3,2
"29/07/2021 22:00:44","29/07/2021 18:00:44",56975,3,4379022,"60fa06e2ce26153bd99e04f0","Firefox 89.0","reminder",2,"SS4",20,"Screen 1","response_keyboard",989,3,1,1,0,"test_trial","SS4","pred","pet store.png",1,3,1
"29/07/2021 22:00:45","29/07/2021 18:00:45",56975,3,4379022,"60fa06e2ce26153bd99e04f0","Firefox 89.0","reminder",2,"SS4",21,"Screen 1","response_keyboard",773,2,1,1,0,"test_trial","SS4","pred","pet store.png",2,2,1
"29/07/2021 22:00:47","29/07/2021 18:00:47",56975,3,4379022,"60fa06e2ce26153bd99e04f0","Firefox 89.0","reminder",2,"SS4",22,"Screen 1","response_keyboard",795,4,1,1,0,"test_trial","SS4","pred","pet store.png",3,4,1
"29/07/2021 22:00:48","29/07/2021 18:00:48",56975,3,4379022,"60fa06e2ce26153bd99e04f0","Firefox 89.0","reminder",2,"SS4",23,"Screen 1","response_keyboard",308,2,1,1,0,"test_trial","SS4","pred","pet store.png",4,2,1
"29/07/2021 22:00:48","29/07/2021 18:00:48",56975,3,4379022,"60fa06e2ce26153bd99e04f0","Firefox 89.0","reminder",2,"SS4",24,"Screen 1","response_keyboard",155,1,1,1,0,"test_trial","SS4","pred","pet store.png",5,1,1
"29/07/2021 22:00:49","29/07/2021 18:00:49",56975,3,4379022,"60fa06e2ce26153bd99e04f0","Firefox 89.0","reminder",2,"SS4",25,"Screen 1","response_keyboard",18,4,1,1,0,"test_trial","SS4","pred","pet store.png",6,4,1
"29/07/2021 22:00:54","29/07/2021 18:00:54",56975,3,4379022,"60fa06e2ce26153bd99e04f0","Firefox 89.0","reminder",2,"SS4",28,"Screen 1","response_keyboard",418,3,1,1,0,"test_trial","SS4","pred","pet store.png",1,3,2
"29/07/2021 22:00:55","29/07/2021 18:00:55",56975,3,4379022,"60fa06e2ce26153bd99e04f0","Firefox 89.0","reminder",2,"SS4",29,"Screen 1","response_keyboard",423,2,1,1,0,"test_trial","SS4","pred","pet store.png",2,2,2
"29/07/2021 22:00:56","29/07/2021 18:00:56",56975,3,4379022,"60fa06e2ce26153bd99e04f0","Firefox 89.0","reminder",2,"SS4",30,"Screen 1","response_keyboard",70,4,1,1,0,"test_trial","SS4","pred","pet store.png",3,4,2
"29/07/2021 22:00:56","29/07/2021 18:00:56",56975,3,4379022,"60fa06e2ce26153bd99e04f0","Firefox 89.0","reminder",2,"SS4",31,"Screen 1","response_keyboard",3,2,1,1,0,"test_trial","SS4","pred","pet store.png",4,2,2
"29/07/2021 22:00:57","29/07/2021 18:00:57",56975,3,4379022,"60fa06e2ce26153bd99e04f0","Firefox 89.0","reminder",2,"SS4",32,"Screen 1","response_keyboard",91,1,1,1,0,"test_trial","SS4","pred","pet store.png",5,1,2
"29/07/2021 22:00:58","29/07/2021 18:00:58",56975,3,4379022,"60fa06e2ce26153bd99e04f0","Firefox 89.0","reminder",2,"SS4",33,"Screen 1","response_keyboard",355,4,1,1,0,"test_trial","SS4","pred","pet store.png",6,4,2
"29/07/2021 22:08:03","29/07/2021 17:08:03",56975,3,4379018,"60ff2abb91918f642ca8cad2","Chrome 92.0.4515.107","reminder",2,"SS1",20,"Screen 1","response_keyboard",494.799999952316,1,1,1,0,"test_trial","SS1","pred","grocery store.png",1,1,1
"29/07/2021 22:08:04","29/07/2021 17:08:04",56975,3,4379018,"60ff2abb91918f642ca8cad2","Chrome 92.0.4515.107","reminder",2,"SS1",21,"Screen 1","response_keyboard",486.700000047684,4,1,1,0,"test_trial","SS1","pred","grocery store.png",2,4,1
"29/07/2021 22:08:05","29/07/2021 17:08:05",56975,3,4379018,"60ff2abb91918f642ca8cad2","Chrome 92.0.4515.107","reminder",2,"SS1",22,"Screen 1","response_keyboard",429,3,1,1,0,"test_trial","SS1","pred","grocery store.png",3,3,1
"29/07/2021 22:08:06","29/07/2021 17:08:06",56975,3,4379018,"60ff2abb91918f642ca8cad2","Chrome 92.0.4515.107","reminder",2,"SS1",23,"Screen 1","response_keyboard",421.5,4,1,1,0,"test_trial","SS1","pred","grocery store.png",4,4,1
"29/07/2021 22:08:07","29/07/2021 17:08:06",56975,3,4379018,"60ff2abb91918f642ca8cad2","Chrome 92.0.4515.107","reminder",2,"SS1",24,"Screen 1","response_keyboard",402.299999952316,2,1,1,0,"test_trial","SS1","pred","grocery store.png",5,2,1
"29/07/2021 22:08:08","29/07/2021 17:08:07",56975,3,4379018,"60ff2abb91918f642ca8cad2","Chrome 92.0.4515.107","reminder",2,"SS1",25,"Screen 1","response_keyboard",388,3,1,1,0,"test_trial","SS1","pred","grocery store.png",6,3,1
"29/07/2021 22:08:13","29/07/2021 17:08:12",56975,3,4379018,"60ff2abb91918f642ca8cad2","Chrome 92.0.4515.107","reminder",2,"SS1",28,"Screen 1","response_keyboard",367.399999976158,1,1,1,0,"test_trial","SS1","pred","grocery store.png",1,1,2
"29/07/2021 22:08:14","29/07/2021 17:08:13",56975,3,4379018,"60ff2abb91918f642ca8cad2","Chrome 92.0.4515.107","reminder",2,"SS1",29,"Screen 1","response_keyboard",340.100000023842,4,1,1,0,"test_trial","SS1","pred","grocery store.png",2,4,2
"29/07/2021 22:08:15","29/07/2021 17:08:14",56975,3,4379018,"60ff2abb91918f642ca8cad2","Chrome 92.0.4515.107","reminder",2,"SS1",30,"Screen 1","response_keyboard",354.800000071526,3,1,1,0,"test_trial","SS1","pred","grocery store.png",3,3,2
"29/07/2021 22:08:15","29/07/2021 17:08:15",56975,3,4379018,"60ff2abb91918f642ca8cad2","Chrome 92.0.4515.107","reminder",2,"SS1",31,"Screen 1","response_keyboard",400.099999904633,4,1,1,0,"test_trial","SS1","pred","grocery store.png",4,4,2
"29/07/2021 22:08:16","29/07/2021 17:08:16",56975,3,4379018,"60ff2abb91918f642ca8cad2","Chrome 92.0.4515.107","reminder",2,"SS1",32,"Screen 1","response_keyboard",418.200000047684,2,1,1,0,"test_trial","SS1","pred","grocery store.png",5,2,2
"29/07/2021 22:08:17","29/07/2021 17:08:17",56975,3,4379018,"60ff2abb91918f642ca8cad2","Chrome 92.0.4515.107","reminder",2,"SS1",33,"Screen 1","response_keyboard",332.199999928474,3,1,1,0,"test_trial","SS1","pred","grocery store.png",6,3,2
"29/07/2021 22:08:52","29/07/2021 15:08:52",56975,3,4378970,"61002caab8bc99b527252504","Safari 14.1","reminder",2,"SS2",20,"Screen 1","response_keyboard",1565,1,1,1,0,"test_trial","SS2","pred","pet store.png",1,1,1
"29/07/2021 22:08:54","29/07/2021 15:08:53",56975,3,4378970,"61002caab8bc99b527252504","Safari 14.1","reminder",2,"SS2",21,"Screen 1","response_keyboard",953,4,1,1,0,"test_trial","SS2","pred","pet store.png",2,4,1
"29/07/2021 22:08:54","29/07/2021 15:08:54",56975,3,4378970,"61002caab8bc99b527252504","Safari 14.1","reminder",2,"SS2",22,"Screen 1","response_keyboard",77.0000000000073,3,1,1,0,"test_trial","SS2","pred","pet store.png",3,3,1
"29/07/2021 22:08:56","29/07/2021 15:08:56",56975,3,4378970,"61002caab8bc99b527252504","Safari 14.1","reminder",2,"SS2",23,"Screen 1","response_keyboard",1759,4,1,1,0,"test_trial","SS2","pred","pet store.png",4,4,1
"29/07/2021 22:08:57","29/07/2021 15:08:57",56975,3,4378970,"61002caab8bc99b527252504","Safari 14.1","reminder",2,"SS2",24,"Screen 1","response_keyboard",485.999999999993,2,1,1,0,"test_trial","SS2","pred","pet store.png",5,2,1
"29/07/2021 22:08:58","29/07/2021 15:08:58",56975,3,4378970,"61002caab8bc99b527252504","Safari 14.1","reminder",2,"SS2",25,"Screen 1","response_keyboard",76,3,1,1,0,"test_trial","SS2","pred","pet store.png",6,3,1
"29/07/2021 22:09:04","29/07/2021 15:09:04",56975,3,4378970,"61002caab8bc99b527252504","Safari 14.1","reminder",2,"SS2",28,"Screen 1","response_keyboard",1141.99999999999,1,1,1,0,"test_trial","SS2","pred","pet store.png",1,1,2
"29/07/2021 22:09:06","29/07/2021 15:09:06",56975,3,4378970,"61002caab8bc99b527252504","Safari 14.1","reminder",2,"SS2",29,"Screen 1","response_keyboard",1543,4,1,1,0,"test_trial","SS2","pred","pet store.png",2,4,2
"29/07/2021 22:09:08","29/07/2021 15:09:07",56975,3,4378970,"61002caab8bc99b527252504","Safari 14.1","reminder",2,"SS2",30,"Screen 1","response_keyboard",382.000000000007,3,1,1,0,"test_trial","SS2","pred","pet store.png",3,3,2
"29/07/2021 22:09:10","29/07/2021 15:09:10",56975,3,4378970,"61002caab8bc99b527252504","Safari 14.1","reminder",2,"SS2",31,"Screen 1","response_keyboard",2762,4,1,1,0,"test_trial","SS2","pred","pet store.png",4,4,2
"29/07/2021 22:09:11","29/07/2021 15:09:11",56975,3,4378970,"61002caab8bc99b527252504","Safari 14.1","reminder",2,"SS2",32,"Screen 1","response_keyboard",455.999999999993,2,1,1,0,"test_trial","SS2","pred","pet store.png",5,2,2
"29/07/2021 22:09:12","29/07/2021 15:09:12",56975,3,4378970,"61002caab8bc99b527252504","Safari 14.1","reminder",2,"SS2",33,"Screen 1","response_keyboard",95,3,1,1,0,"test_trial","SS2","pred","pet store.png",6,3,2
"29/07/2021 22:11:35","29/07/2021 18:11:36",56975,3,4379051,"60fed38a8adb46e44e0869a5","Chrome 92.0.4515.107","reminder",2,"SS6",20,"Screen 1","response_keyboard",1343.5,1,1,1,0,"test_trial","SS6","pred","pet store.png",1,1,1
"29/07/2021 22:11:37","29/07/2021 18:11:38",56975,3,4379051,"60fed38a8adb46e44e0869a5","Chrome 92.0.4515.107","reminder",2,"SS6",21,"Screen 1","response_keyboard",671.699999999721,4,1,1,0,"test_trial","SS6","pred","pet store.png",2,4,1
"29/07/2021 22:11:38","29/07/2021 18:11:39",56975,3,4379051,"60fed38a8adb46e44e0869a5","Chrome 92.0.4515.107","reminder",2,"SS6",22,"Screen 1","response_keyboard",891.600000000093,3,1,1,0,"test_trial","SS6","pred","pet store.png",3,3,1
"29/07/2021 22:11:39","29/07/2021 18:11:40",56975,3,4379051,"60fed38a8adb46e44e0869a5","Chrome 92.0.4515.107","reminder",2,"SS6",23,"Screen 1","response_keyboard",572,4,1,1,0,"test_trial","SS6","pred","pet store.png",4,4,1
"29/07/2021 22:11:41","29/07/2021 18:11:42",56975,3,4379051,"60fed38a8adb46e44e0869a5","Chrome 92.0.4515.107","reminder",2,"SS6",24,"Screen 1","response_keyboard",706.799999999814,2,1,1,0,"test_trial","SS6","pred","pet store.png",5,2,1
"29/07/2021 22:11:42","29/07/2021 18:11:43",56975,3,4379051,"60fed38a8adb46e44e0869a5","Chrome 92.0.4515.107","reminder",2,"SS6",25,"Screen 1","response_keyboard",390.700000000186,3,1,1,0,"test_trial","SS6","pred","pet store.png",6,3,1
"29/07/2021 22:11:47","29/07/2021 18:11:48",56975,3,4379051,"60fed38a8adb46e44e0869a5","Chrome 92.0.4515.107","reminder",2,"SS6",28,"Screen 1","response_keyboard",628.799999999814,1,1,1,0,"test_trial","SS6","pred","pet store.png",1,1,2
"29/07/2021 22:11:48","29/07/2021 18:11:49",56975,3,4379051,"60fed38a8adb46e44e0869a5","Chrome 92.0.4515.107","reminder",2,"SS6",29,"Screen 1","response_keyboard",595.799999999814,4,1,1,0,"test_trial","SS6","pred","pet store.png",2,4,2
"29/07/2021 22:11:49","29/07/2021 18:11:50",56975,3,4379051,"60fed38a8adb46e44e0869a5","Chrome 92.0.4515.107","reminder",2,"SS6",30,"Screen 1","response_keyboard",427.599999999627,3,1,1,0,"test_trial","SS6","pred","pet store.png",3,3,2
"29/07/2021 22:11:51","29/07/2021 18:11:52",56975,3,4379051,"60fed38a8adb46e44e0869a5","Chrome 92.0.4515.107","reminder",2,"SS6",31,"Screen 1","response_keyboard",1421.20000000019,4,1,1,0,"test_trial","SS6","pred","pet store.png",4,4,2
"29/07/2021 22:11:53","29/07/2021 18:11:54",56975,3,4379051,"60fed38a8adb46e44e0869a5","Chrome 92.0.4515.107","reminder",2,"SS6",32,"Screen 1","response_keyboard",1180.40000000037,2,1,1,0,"test_trial","SS6","pred","pet store.png",5,2,2
"29/07/2021 22:11:54","29/07/2021 18:11:55",56975,3,4379051,"60fed38a8adb46e44e0869a5","Chrome 92.0.4515.107","reminder",2,"SS6",33,"Screen 1","response_keyboard",757.900000000373,4,1,0,0,"test_trial","SS6","pred","pet store.png",6,3,2
"30/07/2021 14:21:59","30/07/2021 10:21:59",56975,3,4382111,"60fead405d4fefc6731afbcc","Chrome 92.0.4515.107","reminder",2,"SS7",20,"Screen 1","response_keyboard",1748.80000001192,3,1,1,0,"test_trial","SS7","pred","grocery store.png",1,3,1
"30/07/2021 14:22:01","30/07/2021 10:22:01",56975,3,4382111,"60fead405d4fefc6731afbcc","Chrome 92.0.4515.107","reminder",2,"SS7",21,"Screen 1","response_keyboard",1453.20000004768,2,1,1,0,"test_trial","SS7","pred","grocery store.png",2,2,1
"30/07/2021 14:22:02","30/07/2021 10:22:02",56975,3,4382111,"60fead405d4fefc6731afbcc","Chrome 92.0.4515.107","reminder",2,"SS7",22,"Screen 1","response_keyboard",637.5,4,1,1,0,"test_trial","SS7","pred","grocery store.png",3,4,1
"30/07/2021 14:22:04","30/07/2021 10:22:04",56975,3,4382111,"60fead405d4fefc6731afbcc","Chrome 92.0.4515.107","reminder",2,"SS7",23,"Screen 1","response_keyboard",872.699999988079,2,1,1,0,"test_trial","SS7","pred","grocery store.png",4,2,1
"30/07/2021 14:22:05","30/07/2021 10:22:05",56975,3,4382111,"60fead405d4fefc6731afbcc","Chrome 92.0.4515.107","reminder",2,"SS7",24,"Screen 1","response_keyboard",736.599999964237,1,1,1,0,"test_trial","SS7","pred","grocery store.png",5,1,1
"30/07/2021 14:22:06","30/07/2021 10:22:06",56975,3,4382111,"60fead405d4fefc6731afbcc","Chrome 92.0.4515.107","reminder",2,"SS7",25,"Screen 1","response_keyboard",779.100000023842,4,1,1,0,"test_trial","SS7","pred","grocery store.png",6,4,1
"30/07/2021 14:22:13","30/07/2021 10:22:13",56975,3,4382111,"60fead405d4fefc6731afbcc","Chrome 92.0.4515.107","reminder",2,"SS7",28,"Screen 1","response_keyboard",2005.59999996424,3,1,1,0,"test_trial","SS7","pred","grocery store.png",1,3,2
"30/07/2021 14:22:14","30/07/2021 10:22:14",56975,3,4382111,"60fead405d4fefc6731afbcc","Chrome 92.0.4515.107","reminder",2,"SS7",29,"Screen 1","response_keyboard",694.899999976158,2,1,1,0,"test_trial","SS7","pred","grocery store.png",2,2,2
"30/07/2021 14:22:15","30/07/2021 10:22:15",56975,3,4382111,"60fead405d4fefc6731afbcc","Chrome 92.0.4515.107","reminder",2,"SS7",30,"Screen 1","response_keyboard",471.800000011921,4,1,1,0,"test_trial","SS7","pred","grocery store.png",3,4,2
"30/07/2021 14:22:17","30/07/2021 10:22:17",56975,3,4382111,"60fead405d4fefc6731afbcc","Chrome 92.0.4515.107","reminder",2,"SS7",31,"Screen 1","response_keyboard",999,2,1,1,0,"test_trial","SS7","pred","grocery store.png",4,2,2
"30/07/2021 14:22:18","30/07/2021 10:22:18",56975,3,4382111,"60fead405d4fefc6731afbcc","Chrome 92.0.4515.107","reminder",2,"SS7",32,"Screen 1","response_keyboard",464.599999964237,1,1,1,0,"test_trial","SS7","pred","grocery store.png",5,1,2
"30/07/2021 14:22:19","30/07/2021 10:22:18",56975,3,4382111,"60fead405d4fefc6731afbcc","Chrome 92.0.4515.107","reminder",2,"SS7",33,"Screen 1","response_keyboard",358.800000011921,4,1,1,0,"test_trial","SS7","pred","grocery store.png",6,4,2
"30/07/2021 14:22:32","30/07/2021 10:22:04",56975,3,4382102,"61004f2008fa2db433058586","Safari 14.0.3","reminder",2,"SS3",20,"Screen 1","response_keyboard",763,3,1,1,0,"test_trial","SS3","pred","grocery store.png",1,3,1
"30/07/2021 14:22:33","30/07/2021 10:22:05",56975,3,4382102,"61004f2008fa2db433058586","Safari 14.0.3","reminder",2,"SS3",21,"Screen 1","response_keyboard",238,2,1,1,0,"test_trial","SS3","pred","grocery store.png",2,2,1
"30/07/2021 14:22:34","30/07/2021 10:22:06",56975,3,4382102,"61004f2008fa2db433058586","Safari 14.0.3","reminder",2,"SS3",22,"Screen 1","response_keyboard",172.000000000007,4,1,1,0,"test_trial","SS3","pred","grocery store.png",3,4,1
"30/07/2021 14:22:34","30/07/2021 10:22:06",56975,3,4382102,"61004f2008fa2db433058586","Safari 14.0.3","reminder",2,"SS3",23,"Screen 1","response_keyboard",3,2,1,1,0,"test_trial","SS3","pred","grocery store.png",4,2,1
"30/07/2021 14:22:35","30/07/2021 10:22:07",56975,3,4382102,"61004f2008fa2db433058586","Safari 14.0.3","reminder",2,"SS3",24,"Screen 1","response_keyboard",686,1,1,1,0,"test_trial","SS3","pred","grocery store.png",5,1,1
"30/07/2021 14:22:36","30/07/2021 10:22:08",56975,3,4382102,"61004f2008fa2db433058586","Safari 14.0.3","reminder",2,"SS3",25,"Screen 1","response_keyboard",7.00000000000728,4,1,1,0,"test_trial","SS3","pred","grocery store.png",6,4,1
"30/07/2021 14:22:41","30/07/2021 10:22:13",56975,3,4382102,"61004f2008fa2db433058586","Safari 14.0.3","reminder",2,"SS3",28,"Screen 1","response_keyboard",535,3,1,1,0,"test_trial","SS3","pred","grocery store.png",1,3,2
"30/07/2021 14:22:42","30/07/2021 10:22:14",56975,3,4382102,"61004f2008fa2db433058586","Safari 14.0.3","reminder",2,"SS3",29,"Screen 1","response_keyboard",14.0000000000073,2,1,1,0,"test_trial","SS3","pred","grocery store.png",2,2,2
"30/07/2021 14:22:43","30/07/2021 10:22:14",56975,3,4382102,"61004f2008fa2db433058586","Safari 14.0.3","reminder",2,"SS3",30,"Screen 1","response_keyboard",133,4,1,1,0,"test_trial","SS3","pred","grocery store.png",3,4,2
"30/07/2021 14:22:43","30/07/2021 10:22:15",56975,3,4382102,"61004f2008fa2db433058586","Safari 14.0.3","reminder",2,"SS3",31,"Screen 1","response_keyboard",33.0000000000073,2,1,1,0,"test_trial","SS3","pred","grocery store.png",4,2,2
"30/07/2021 14:22:44","30/07/2021 10:22:16",56975,3,4382102,"61004f2008fa2db433058586","Safari 14.0.3","reminder",2,"SS3",32,"Screen 1","response_keyboard",637,1,1,1,0,"test_trial","SS3","pred","grocery store.png",5,1,2
"30/07/2021 14:22:45","30/07/2021 10:22:17",56975,3,4382102,"61004f2008fa2db433058586","Safari 14.0.3","reminder",2,"SS3",33,"Screen 1","response_keyboard",632,4,1,1,0,"test_trial","SS3","pred","grocery store.png",6,4,2
"30/07/2021 14:23:01","30/07/2021 11:23:30",56975,3,4382169,"60ff36feac69b28ae50fe0f7","Firefox 87.0","reminder",2,"SS2",20,"Screen 1","response_keyboard",1084,1,1,1,0,"test_trial","SS2","pred","pet store.png",1,1,1
"30/07/2021 14:23:02","30/07/2021 11:23:31",56975,3,4382169,"60ff36feac69b28ae50fe0f7","Firefox 87.0","reminder",2,"SS2",21,"Screen 1","response_keyboard",459,4,1,1,0,"test_trial","SS2","pred","pet store.png",2,4,1
"30/07/2021 14:23:03","30/07/2021 11:23:32",56975,3,4382169,"60ff36feac69b28ae50fe0f7","Firefox 87.0","reminder",2,"SS2",22,"Screen 1","response_keyboard",288,3,1,1,0,"test_trial","SS2","pred","pet store.png",3,3,1
"30/07/2021 14:23:04","30/07/2021 11:23:32",56975,3,4382169,"60ff36feac69b28ae50fe0f7","Firefox 87.0","reminder",2,"SS2",23,"Screen 1","response_keyboard",275,4,1,1,0,"test_trial","SS2","pred","pet store.png",4,4,1
"30/07/2021 14:23:04","30/07/2021 11:23:33",56975,3,4382169,"60ff36feac69b28ae50fe0f7","Firefox 87.0","reminder",2,"SS2",24,"Screen 1","response_keyboard",202,2,1,1,0,"test_trial","SS2","pred","pet store.png",5,2,1
"30/07/2021 14:23:05","30/07/2021 11:23:34",56975,3,4382169,"60ff36feac69b28ae50fe0f7","Firefox 87.0","reminder",2,"SS2",25,"Screen 1","response_keyboard",175,3,1,1,0,"test_trial","SS2","pred","pet store.png",6,3,1
"30/07/2021 14:23:11","30/07/2021 11:23:40",56975,3,4382169,"60ff36feac69b28ae50fe0f7","Firefox 87.0","reminder",2,"SS2",28,"Screen 1","response_keyboard",939,1,1,1,0,"test_trial","SS2","pred","pet store.png",1,1,2
"30/07/2021 14:23:12","30/07/2021 11:23:40",56975,3,4382169,"60ff36feac69b28ae50fe0f7","Firefox 87.0","reminder",2,"SS2",29,"Screen 1","response_keyboard",99,4,1,1,0,"test_trial","SS2","pred","pet store.png",2,4,2
"30/07/2021 14:23:12","30/07/2021 11:23:41",56975,3,4382169,"60ff36feac69b28ae50fe0f7","Firefox 87.0","reminder",2,"SS2",30,"Screen 1","response_keyboard",28,3,1,1,0,"test_trial","SS2","pred","pet store.png",3,3,2
"30/07/2021 14:23:14","30/07/2021 11:23:42",56975,3,4382169,"60ff36feac69b28ae50fe0f7","Firefox 87.0","reminder",2,"SS2",31,"Screen 1","response_keyboard",789,4,1,1,0,"test_trial","SS2","pred","pet store.png",4,4,2
"30/07/2021 14:23:14","30/07/2021 11:23:43",56975,3,4382169,"60ff36feac69b28ae50fe0f7","Firefox 87.0","reminder",2,"SS2",32,"Screen 1","response_keyboard",97,2,1,1,0,"test_trial","SS2","pred","pet store.png",5,2,2
"30/07/2021 14:23:15","30/07/2021 11:23:44",56975,3,4382169,"60ff36feac69b28ae50fe0f7","Firefox 87.0","reminder",2,"SS2",33,"Screen 1","response_keyboard",321,3,1,1,0,"test_trial","SS2","pred","pet store.png",6,3,2
"30/07/2021 14:24:11","30/07/2021 10:24:11",56975,3,4382158,"60fffc35ee80fc69ec730cea","Chrome 92.0.4515.107","reminder",2,"SS3",20,"Screen 1","response_keyboard",1022.60000002384,3,1,1,0,"test_trial","SS3","pred","grocery store.png",1,3,1
"30/07/2021 14:24:12","30/07/2021 10:24:12",56975,3,4382158,"60fffc35ee80fc69ec730cea","Chrome 92.0.4515.107","reminder",2,"SS3",21,"Screen 1","response_keyboard",651.199999928474,2,1,1,0,"test_trial","SS3","pred","grocery store.png",2,2,1
"30/07/2021 14:24:13","30/07/2021 10:24:13",56975,3,4382158,"60fffc35ee80fc69ec730cea","Chrome 92.0.4515.107","reminder",2,"SS3",22,"Screen 1","response_keyboard",583.5,4,1,1,0,"test_trial","SS3","pred","grocery store.png",3,4,1
"30/07/2021 14:24:14","30/07/2021 10:24:14",56975,3,4382158,"60fffc35ee80fc69ec730cea","Chrome 92.0.4515.107","reminder",2,"SS3",23,"Screen 1","response_keyboard",469.299999952316,2,1,1,0,"test_trial","SS3","pred","grocery store.png",4,2,1
"30/07/2021 14:24:16","30/07/2021 10:24:15",56975,3,4382158,"60fffc35ee80fc69ec730cea","Chrome 92.0.4515.107","reminder",2,"SS3",24,"Screen 1","response_keyboard",494,1,1,1,0,"test_trial","SS3","pred","grocery store.png",5,1,1
"30/07/2021 14:24:16","30/07/2021 10:24:16",56975,3,4382158,"60fffc35ee80fc69ec730cea","Chrome 92.0.4515.107","reminder",2,"SS3",25,"Screen 1","response_keyboard",371.700000047684,4,1,1,0,"test_trial","SS3","pred","grocery store.png",6,4,1
"30/07/2021 14:24:22","30/07/2021 10:24:22",56975,3,4382158,"60fffc35ee80fc69ec730cea","Chrome 92.0.4515.107","reminder",2,"SS3",28,"Screen 1","response_keyboard",591.199999928474,3,1,1,0,"test_trial","SS3","pred","grocery store.png",1,3,2
"30/07/2021 14:24:23","30/07/2021 10:24:23",56975,3,4382158,"60fffc35ee80fc69ec730cea","Chrome 92.0.4515.107","reminder",2,"SS3",29,"Screen 1","response_keyboard",299.399999976158,2,1,1,0,"test_trial","SS3","pred","grocery store.png",2,2,2
"30/07/2021 14:24:24","30/07/2021 10:24:24",56975,3,4382158,"60fffc35ee80fc69ec730cea","Chrome 92.0.4515.107","reminder",2,"SS3",30,"Screen 1","response_keyboard",348,4,1,1,0,"test_trial","SS3","pred","grocery store.png",3,4,2
"30/07/2021 14:24:25","30/07/2021 10:24:25",56975,3,4382158,"60fffc35ee80fc69ec730cea","Chrome 92.0.4515.107","reminder",2,"SS3",31,"Screen 1","response_keyboard",693.200000047684,2,1,1,0,"test_trial","SS3","pred","grocery store.png",4,2,2
"30/07/2021 14:24:26","30/07/2021 10:24:26",56975,3,4382158,"60fffc35ee80fc69ec730cea","Chrome 92.0.4515.107","reminder",2,"SS3",32,"Screen 1","response_keyboard",147,1,1,1,0,"test_trial","SS3","pred","grocery store.png",5,1,2
"30/07/2021 14:24:26","30/07/2021 10:24:26",56975,3,4382158,"60fffc35ee80fc69ec730cea","Chrome 92.0.4515.107","reminder",2,"SS3",33,"Screen 1","response_keyboard",156.299999952316,4,1,1,0,"test_trial","SS3","pred","grocery store.png",6,4,2
"30/07/2021 14:24:59","30/07/2021 09:24:59",56975,3,4382191,"60fdd1340f11e171317e7504","Safari 12.0.3","reminder",2,"SS6",20,"Screen 1","response_keyboard",454,1,1,1,0,"test_trial","SS6","pred","pet store.png",1,1,1
"30/07/2021 14:25:00","30/07/2021 09:25:00",56975,3,4382191,"60fdd1340f11e171317e7504","Safari 12.0.3","reminder",2,"SS6",21,"Screen 1","response_keyboard",398.000000000007,4,1,1,0,"test_trial","SS6","pred","pet store.png",2,4,1
"30/07/2021 14:25:01","30/07/2021 09:25:01",56975,3,4382191,"60fdd1340f11e171317e7504","Safari 12.0.3","reminder",2,"SS6",22,"Screen 1","response_keyboard",346,3,1,1,0,"test_trial","SS6","pred","pet store.png",3,3,1
"30/07/2021 14:25:02","30/07/2021 09:25:02",56975,3,4382191,"60fdd1340f11e171317e7504","Safari 12.0.3","reminder",2,"SS6",23,"Screen 1","response_keyboard",343,4,1,1,0,"test_trial","SS6","pred","pet store.png",4,4,1
"30/07/2021 14:25:03","30/07/2021 09:25:03",56975,3,4382191,"60fdd1340f11e171317e7504","Safari 12.0.3","reminder",2,"SS6",24,"Screen 1","response_keyboard",390,2,1,1,0,"test_trial","SS6","pred","pet store.png",5,2,1
"30/07/2021 14:25:04","30/07/2021 09:25:04",56975,3,4382191,"60fdd1340f11e171317e7504","Safari 12.0.3","reminder",2,"SS6",25,"Screen 1","response_keyboard",304,3,1,1,0,"test_trial","SS6","pred","pet store.png",6,3,1
"30/07/2021 14:25:09","30/07/2021 09:25:09",56975,3,4382191,"60fdd1340f11e171317e7504","Safari 12.0.3","reminder",2,"SS6",28,"Screen 1","response_keyboard",496,1,1,1,0,"test_trial","SS6","pred","pet store.png",1,1,2
"30/07/2021 14:25:09","30/07/2021 09:25:10",56975,3,4382191,"60fdd1340f11e171317e7504","Safari 12.0.3","reminder",2,"SS6",29,"Screen 1","response_keyboard",234,4,1,1,0,"test_trial","SS6","pred","pet store.png",2,4,2
"30/07/2021 14:25:10","30/07/2021 09:25:10",56975,3,4382191,"60fdd1340f11e171317e7504","Safari 12.0.3","reminder",2,"SS6",30,"Screen 1","response_keyboard",207,3,1,1,0,"test_trial","SS6","pred","pet store.png",3,3,2
"30/07/2021 14:25:11","30/07/2021 09:25:11",56975,3,4382191,"60fdd1340f11e171317e7504","Safari 12.0.3","reminder",2,"SS6",31,"Screen 1","response_keyboard",235,4,1,1,0,"test_trial","SS6","pred","pet store.png",4,4,2
"30/07/2021 14:25:12","30/07/2021 09:25:12",56975,3,4382191,"60fdd1340f11e171317e7504","Safari 12.0.3","reminder",2,"SS6",32,"Screen 1","response_keyboard",269.000000000007,2,1,1,0,"test_trial","SS6","pred","pet store.png",5,2,2
"30/07/2021 14:25:12","30/07/2021 09:25:13",56975,3,4382191,"60fdd1340f11e171317e7504","Safari 12.0.3","reminder",2,"SS6",33,"Screen 1","response_keyboard",243,3,1,1,0,"test_trial","SS6","pred","pet store.png",6,3,2
"30/07/2021 14:35:51","30/07/2021 10:35:51",56975,3,4382344,"60fdb65690ed7b149bebd1ad","Chrome 91.0.4472.114","reminder",2,"SS4",20,"Screen 1","response_keyboard",1573,3,1,1,0,"test_trial","SS4","pred","pet store.png",1,3,1
"30/07/2021 14:35:52","30/07/2021 10:35:52",56975,3,4382344,"60fdb65690ed7b149bebd1ad","Chrome 91.0.4472.114","reminder",2,"SS4",21,"Screen 1","response_keyboard",47.7999999821186,2,1,1,0,"test_trial","SS4","pred","pet store.png",2,2,1
"30/07/2021 14:35:53","30/07/2021 10:35:53",56975,3,4382344,"60fdb65690ed7b149bebd1ad","Chrome 91.0.4472.114","reminder",2,"SS4",22,"Screen 1","response_keyboard",299.5,4,1,1,0,"test_trial","SS4","pred","pet store.png",3,4,1
"30/07/2021 14:35:54","30/07/2021 10:35:54",56975,3,4382344,"60fdb65690ed7b149bebd1ad","Chrome 91.0.4472.114","reminder",2,"SS4",23,"Screen 1","response_keyboard",239.90000000596,2,1,1,0,"test_trial","SS4","pred","pet store.png",4,2,1
"30/07/2021 14:35:55","30/07/2021 10:35:55",56975,3,4382344,"60fdb65690ed7b149bebd1ad","Chrome 91.0.4472.114","reminder",2,"SS4",24,"Screen 1","response_keyboard",432.90000000596,1,1,1,0,"test_trial","SS4","pred","pet store.png",5,1,1
"30/07/2021 14:35:55","30/07/2021 10:35:55",56975,3,4382344,"60fdb65690ed7b149bebd1ad","Chrome 91.0.4472.114","reminder",2,"SS4",25,"Screen 1","response_keyboard",55.0999999940395,4,1,1,0,"test_trial","SS4","pred","pet store.png",6,4,1
"30/07/2021 14:36:00","30/07/2021 10:36:00",56975,3,4382344,"60fdb65690ed7b149bebd1ad","Chrome 91.0.4472.114","reminder",2,"SS4",28,"Screen 1","response_keyboard",429.59999999404,3,1,1,0,"test_trial","SS4","pred","pet store.png",1,3,2
"30/07/2021 14:36:01","30/07/2021 10:36:01",56975,3,4382344,"60fdb65690ed7b149bebd1ad","Chrome 91.0.4472.114","reminder",2,"SS4",29,"Screen 1","response_keyboard",502.899999976158,2,1,1,0,"test_trial","SS4","pred","pet store.png",2,2,2
"30/07/2021 14:36:02","30/07/2021 10:36:02",56975,3,4382344,"60fdb65690ed7b149bebd1ad","Chrome 91.0.4472.114","reminder",2,"SS4",30,"Screen 1","response_keyboard",397.59999999404,4,1,1,0,"test_trial","SS4","pred","pet store.png",3,4,2
"30/07/2021 14:36:03","30/07/2021 10:36:03",56975,3,4382344,"60fdb65690ed7b149bebd1ad","Chrome 91.0.4472.114","reminder",2,"SS4",31,"Screen 1","response_keyboard",285.199999988079,2,1,1,0,"test_trial","SS4","pred","pet store.png",4,2,2
"30/07/2021 14:36:04","30/07/2021 10:36:04",56975,3,4382344,"60fdb65690ed7b149bebd1ad","Chrome 91.0.4472.114","reminder",2,"SS4",32,"Screen 1","response_keyboard",335.699999988079,1,1,1,0,"test_trial","SS4","pred","pet store.png",5,1,2
"30/07/2021 14:36:05","30/07/2021 10:36:05",56975,3,4382344,"60fdb65690ed7b149bebd1ad","Chrome 91.0.4472.114","reminder",2,"SS4",33,"Screen 1","response_keyboard",259.300000011921,4,1,1,0,"test_trial","SS4","pred","pet store.png",6,4,2
"30/07/2021 14:37:32","30/07/2021 10:37:32",56975,3,4382320,"61033e20acfe410f21073d08","Safari 14.1.1","reminder",2,"SS8",20,"Screen 1","response_keyboard",722,3,1,1,0,"test_trial","SS8","pred","pet store.png",1,3,1
