"utc_date","local_date","exp_id","exp_ver","id","prolific_id","browser","task","task_ver","gorilla_counterbalance","trial_row","rt","response","attempt","accuracy","dishonest","display","counterbalance_order","list","event","condition","event_name","stim","seq_pos","spatial_pos"
"14/07/2021 19:57:02","14/07/2021 12:56:55",56975,3,4266017,"60ee922fcc2b54102d237822","Edge 91.0.864.67","encoding_b1",3,"SS6",4,1145.09999999404,3,1,1,0,"motor_trial_cue","SS6",1,1,"rand","grocery store.png","sandwichB.png",1,3
"14/07/2021 19:57:07","14/07/2021 12:56:59",56975,3,4266017,"60ee922fcc2b54102d237822","Edge 91.0.864.67","encoding_b1",3,"SS6",6,1045.59999999404,2,1,1,0,"motor_trial_cue","SS6",1,1,"rand","grocery store.png","riceB.png",2,2
"14/07/2021 19:57:11","14/07/2021 12:57:04",56975,3,4266017,"60ee922fcc2b54102d237822","Edge 91.0.864.67","encoding_b1",3,"SS6",8,901.600000008941,4,1,1,0,"motor_trial_cue","SS6",1,1,"rand","grocery store.png","pretzelB.png",3,4
"14/07/2021 19:57:16","14/07/2021 12:57:09",56975,3,4266017,"60ee922fcc2b54102d237822","Edge 91.0.864.67","encoding_b1",3,"SS6",10,1377.79999999702,1,1,1,0,"motor_trial_cue","SS6",1,1,"rand","grocery store.png","caramelappleB.png",4,1
"14/07/2021 19:57:21","14/07/2021 12:57:13",56975,3,4266017,"60ee922fcc2b54102d237822","Edge 91.0.864.67","encoding_b1",3,"SS6",12,950,4,1,1,0,"motor_trial_cue","SS6",1,1,"rand","grocery store.png","cinnamonB.png",5,4
"14/07/2021 19:57:25","14/07/2021 12:57:18",56975,3,4266017,"60ee922fcc2b54102d237822","Edge 91.0.864.67","encoding_b1",3,"SS6",14,824.600000008941,2,1,1,0,"motor_trial_cue","SS6",1,1,"rand","grocery store.png","beetB.png",6,2
"14/07/2021 19:57:37","14/07/2021 12:57:29",56975,3,4266017,"60ee922fcc2b54102d237822","Edge 91.0.864.67","encoding_b1",3,"SS6",18,4014,1,1,1,0,"motor_trial_mem","SS6",1,2,"pred","pet store.png","chimpB.png",1,1
"14/07/2021 19:57:41","14/07/2021 12:57:33",56975,3,4266017,"60ee922fcc2b54102d237822","Edge 91.0.864.67","encoding_b1",3,"SS6",20,532.399999991059,4,1,1,0,"motor_trial_mem","SS6",1,2,"pred","pet store.png","seahorseB.png",2,4
"14/07/2021 19:57:45","14/07/2021 12:57:37",56975,3,4266017,"60ee922fcc2b54102d237822","Edge 91.0.864.67","encoding_b1",3,"SS6",22,780.5,3,1,1,0,"motor_trial_mem","SS6",1,2,"pred","pet store.png","crocodileB.png",3,3
"14/07/2021 19:57:49","14/07/2021 12:57:42",56975,3,4266017,"60ee922fcc2b54102d237822","Edge 91.0.864.67","encoding_b1",3,"SS6",24,947.79999999702,4,1,1,0,"motor_trial_mem","SS6",1,2,"pred","pet store.png","tigerB.png",4,4
"14/07/2021 19:57:55","14/07/2021 12:57:47",56975,3,4266017,"60ee922fcc2b54102d237822","Edge 91.0.864.67","encoding_b1",3,"SS6",26,1852.90000000596,2,1,1,0,"motor_trial_mem","SS6",1,2,"pred","pet store.png","killerwhaleB.png",5,2
"14/07/2021 19:57:59","14/07/2021 12:57:51",56975,3,4266017,"60ee922fcc2b54102d237822","Edge 91.0.864.67","encoding_b1",3,"SS6",28,496.699999988079,3,1,1,0,"motor_trial_mem","SS6",1,2,"pred","pet store.png","cowB.png",6,3
"14/07/2021 19:58:08","14/07/2021 12:58:00",56975,3,4266017,"60ee922fcc2b54102d237822","Edge 91.0.864.67","encoding_b1",3,"SS6",32,1306.20000000298,4,1,1,0,"motor_trial_cue","SS6",1,3,"rand","grocery store.png","walnutsB.png",1,4
"14/07/2021 19:58:12","14/07/2021 12:58:04",56975,3,4266017,"60ee922fcc2b54102d237822","Edge 91.0.864.67","encoding_b1",3,"SS6",34,825.70000000298,3,1,1,0,"motor_trial_cue","SS6",1,3,"rand","grocery store.png","nachosB.png",2,3
"14/07/2021 19:58:17","14/07/2021 12:58:09",56975,3,4266017,"60ee922fcc2b54102d237822","Edge 91.0.864.67","encoding_b1",3,"SS6",36,1079.40000000596,1,1,1,0,"motor_trial_cue","SS6",1,3,"rand","grocery store.png","hotdogB.png",3,1
"14/07/2021 19:58:21","14/07/2021 12:58:13",56975,3,4266017,"60ee922fcc2b54102d237822","Edge 91.0.864.67","encoding_b1",3,"SS6",38,869.79999999702,2,1,1,0,"motor_trial_cue","SS6",1,3,"rand","grocery store.png","starfruitB.png",4,2
"14/07/2021 19:58:25","14/07/2021 12:58:18",56975,3,4266017,"60ee922fcc2b54102d237822","Edge 91.0.864.67","encoding_b1",3,"SS6",40,687,1,1,1,0,"motor_trial_cue","SS6",1,3,"rand","grocery store.png","celeryB.png",5,1
"14/07/2021 19:58:30","14/07/2021 12:58:22",56975,3,4266017,"60ee922fcc2b54102d237822","Edge 91.0.864.67","encoding_b1",3,"SS6",42,896.5,3,1,1,0,"motor_trial_cue","SS6",1,3,"rand","grocery store.png","tacoB.png",6,3
"14/07/2021 19:58:39","14/07/2021 12:58:31",56975,3,4266017,"60ee922fcc2b54102d237822","Edge 91.0.864.67","encoding_b1",3,"SS6",46,1425.5,1,1,1,0,"motor_trial_mem","SS6",1,4,"pred","pet store.png","caterpillarB.png",1,1
"14/07/2021 19:58:43","14/07/2021 12:58:35",56975,3,4266017,"60ee922fcc2b54102d237822","Edge 91.0.864.67","encoding_b1",3,"SS6",48,521.70000000298,4,1,1,0,"motor_trial_mem","SS6",1,4,"pred","pet store.png","butterflyB.png",2,4
"14/07/2021 19:58:47","14/07/2021 12:58:40",56975,3,4266017,"60ee922fcc2b54102d237822","Edge 91.0.864.67","encoding_b1",3,"SS6",50,1003.89999999106,3,1,1,0,"motor_trial_mem","SS6",1,4,"pred","pet store.png","chickenB.png",3,3
"14/07/2021 19:58:51","14/07/2021 12:58:44",56975,3,4266017,"60ee922fcc2b54102d237822","Edge 91.0.864.67","encoding_b1",3,"SS6",52,503.09999999404,4,1,1,0,"motor_trial_mem","SS6",1,4,"pred","pet store.png","pelicanB.png",4,4
"14/07/2021 19:58:56","14/07/2021 12:58:48",56975,3,4266017,"60ee922fcc2b54102d237822","Edge 91.0.864.67","encoding_b1",3,"SS6",54,966.79999999702,2,1,1,0,"motor_trial_mem","SS6",1,4,"pred","pet store.png","polarbearB.png",5,2
"14/07/2021 19:59:00","14/07/2021 12:58:52",56975,3,4266017,"60ee922fcc2b54102d237822","Edge 91.0.864.67","encoding_b1",3,"SS6",56,492.59999999404,3,1,1,0,"motor_trial_mem","SS6",1,4,"pred","pet store.png","zebraB.png",6,3
"14/07/2021 20:01:05","14/07/2021 13:00:58",56975,3,4266017,"60ee922fcc2b54102d237822","Edge 91.0.864.67","encoding_b2",2,"SS6",4,958.70000000298,1,1,1,0,"motor_trial_mem","SS6",2,1,"pred","pet store.png","pantherB.png",1,1
"14/07/2021 20:01:10","14/07/2021 13:01:02",56975,3,4266017,"60ee922fcc2b54102d237822","Edge 91.0.864.67","encoding_b2",2,"SS6",6,1024.5,4,1,1,0,"motor_trial_mem","SS6",2,1,"pred","pet store.png","rabbitB.png",2,4
"14/07/2021 20:01:14","14/07/2021 13:01:06",56975,3,4266017,"60ee922fcc2b54102d237822","Edge 91.0.864.67","encoding_b2",2,"SS6",8,807.70000000298,3,1,1,0,"motor_trial_mem","SS6",2,1,"pred","pet store.png","kangarooB.png",3,3
"14/07/2021 20:01:18","14/07/2021 13:01:10",56975,3,4266017,"60ee922fcc2b54102d237822","Edge 91.0.864.67","encoding_b2",2,"SS6",10,446.399999991059,4,1,1,0,"motor_trial_mem","SS6",2,1,"pred","pet store.png","turkeyB.png",4,4
"14/07/2021 20:01:22","14/07/2021 13:01:15",56975,3,4266017,"60ee922fcc2b54102d237822","Edge 91.0.864.67","encoding_b2",2,"SS6",12,603.70000000298,2,1,1,0,"motor_trial_mem","SS6",2,1,"pred","pet store.png","elephantB.png",5,2
"14/07/2021 20:01:26","14/07/2021 13:01:18",56975,3,4266017,"60ee922fcc2b54102d237822","Edge 91.0.864.67","encoding_b2",2,"SS6",14,353.100000008941,3,1,1,0,"motor_trial_mem","SS6",2,1,"pred","pet store.png","dolphinB.png",6,3
"14/07/2021 20:01:35","14/07/2021 13:01:27",56975,3,4266017,"60ee922fcc2b54102d237822","Edge 91.0.864.67","encoding_b2",2,"SS6",18,1133.89999999106,1,1,1,0,"motor_trial_mem","SS6",2,2,"pred","pet store.png","squirrelB.png",1,1
"14/07/2021 20:01:39","14/07/2021 13:01:31",56975,3,4266017,"60ee922fcc2b54102d237822","Edge 91.0.864.67","encoding_b2",2,"SS6",20,455.29999999702,4,1,1,0,"motor_trial_mem","SS6",2,2,"pred","pet store.png","bloodhoundB.png",2,4
"14/07/2021 20:01:43","14/07/2021 13:01:35",56975,3,4266017,"60ee922fcc2b54102d237822","Edge 91.0.864.67","encoding_b2",2,"SS6",22,436.40000000596,3,1,1,0,"motor_trial_mem","SS6",2,2,"pred","pet store.png","goatB.png",3,3
"14/07/2021 20:01:47","14/07/2021 13:01:39",56975,3,4266017,"60ee922fcc2b54102d237822","Edge 91.0.864.67","encoding_b2",2,"SS6",24,532.5,4,1,1,0,"motor_trial_mem","SS6",2,2,"pred","pet store.png","surgeonfishB.png",4,4
"14/07/2021 20:01:51","14/07/2021 13:01:43",56975,3,4266017,"60ee922fcc2b54102d237822","Edge 91.0.864.67","encoding_b2",2,"SS6",26,573.699999988079,2,1,1,0,"motor_trial_mem","SS6",2,2,"pred","pet store.png","snailB.png",5,2
"14/07/2021 20:01:55","14/07/2021 13:01:47",56975,3,4266017,"60ee922fcc2b54102d237822","Edge 91.0.864.67","encoding_b2",2,"SS6",28,735.399999991059,3,1,1,0,"motor_trial_mem","SS6",2,2,"pred","pet store.png","cheetahB.png",6,3
"14/07/2021 20:02:04","14/07/2021 13:01:56",56975,3,4266017,"60ee922fcc2b54102d237822","Edge 91.0.864.67","encoding_b2",2,"SS6",32,1539.10000000894,3,1,1,0,"motor_trial_cue","SS6",2,3,"rand","grocery store.png","cookiesB.png",1,3
"14/07/2021 20:02:09","14/07/2021 13:02:01",56975,3,4266017,"60ee922fcc2b54102d237822","Edge 91.0.864.67","encoding_b2",2,"SS6",34,1112.19999998808,4,1,1,0,"motor_trial_cue","SS6",2,3,"rand","grocery store.png","burritoB.png",2,4
"14/07/2021 20:02:13","14/07/2021 13:02:05",56975,3,4266017,"60ee922fcc2b54102d237822","Edge 91.0.864.67","encoding_b2",2,"SS6",36,758.899999991059,1,1,1,0,"motor_trial_cue","SS6",2,3,"rand","grocery store.png","dumplingsB.png",3,1
"14/07/2021 20:02:18","14/07/2021 13:02:10",56975,3,4266017,"60ee922fcc2b54102d237822","Edge 91.0.864.67","encoding_b2",2,"SS6",38,1218.59999999404,2,1,1,0,"motor_trial_cue","SS6",2,3,"rand","grocery store.png","saladB.png",4,2
"14/07/2021 20:02:22","14/07/2021 13:02:14",56975,3,4266017,"60ee922fcc2b54102d237822","Edge 91.0.864.67","encoding_b2",2,"SS6",40,745,1,1,1,0,"motor_trial_cue","SS6",2,3,"rand","grocery store.png","kiwiB.png",5,1
"14/07/2021 20:02:26","14/07/2021 13:02:19",56975,3,4266017,"60ee922fcc2b54102d237822","Edge 91.0.864.67","encoding_b2",2,"SS6",42,758.20000000298,4,1,1,0,"motor_trial_cue","SS6",2,3,"rand","grocery store.png","cakeB.png",6,4
"14/07/2021 20:02:35","14/07/2021 13:02:27",56975,3,4266017,"60ee922fcc2b54102d237822","Edge 91.0.864.67","encoding_b2",2,"SS6",46,890.59999999404,3,1,1,0,"motor_trial_cue","SS6",2,4,"rand","grocery store.png","tomatoB.png",1,3
"14/07/2021 20:02:39","14/07/2021 13:02:32",56975,3,4266017,"60ee922fcc2b54102d237822","Edge 91.0.864.67","encoding_b2",2,"SS6",48,1105.79999999702,1,1,1,0,"motor_trial_cue","SS6",2,4,"rand","grocery store.png","popcornshrimpB.png",2,1
"14/07/2021 20:02:44","14/07/2021 13:02:36",56975,3,4266017,"60ee922fcc2b54102d237822","Edge 91.0.864.67","encoding_b2",2,"SS6",50,910.59999999404,4,1,1,0,"motor_trial_cue","SS6",2,4,"rand","grocery store.png","waffleB.png",3,4
"14/07/2021 20:02:48","14/07/2021 13:02:40",56975,3,4266017,"60ee922fcc2b54102d237822","Edge 91.0.864.67","encoding_b2",2,"SS6",52,703.5,1,1,1,0,"motor_trial_cue","SS6",2,4,"rand","grocery store.png","asparagusB.png",4,1
"14/07/2021 20:02:52","14/07/2021 13:02:45",56975,3,4266017,"60ee922fcc2b54102d237822","Edge 91.0.864.67","encoding_b2",2,"SS6",54,885.09999999404,2,1,1,0,"motor_trial_cue","SS6",2,4,"rand","grocery store.png","broccoliB.png",5,2
"14/07/2021 20:02:56","14/07/2021 13:02:49",56975,3,4266017,"60ee922fcc2b54102d237822","Edge 91.0.864.67","encoding_b2",2,"SS6",56,657.399999991059,4,1,1,0,"motor_trial_cue","SS6",2,4,"rand","grocery store.png","pomegranateB.png",6,4
"14/07/2021 20:04:33","14/07/2021 13:04:26",56975,3,4266017,"60ee922fcc2b54102d237822","Edge 91.0.864.67","encoding_b3",2,"SS6",4,1074.59999999404,4,1,1,0,"motor_trial_cue","SS6",3,1,"rand","grocery store.png","eggB.png",1,4
"14/07/2021 20:04:38","14/07/2021 13:04:30",56975,3,4266017,"60ee922fcc2b54102d237822","Edge 91.0.864.67","encoding_b3",2,"SS6",6,996,1,1,0,0,"motor_trial_cue","SS6",3,1,"rand","grocery store.png","raspberriesB.png",2,2
"14/07/2021 20:04:43","14/07/2021 13:04:35",56975,3,4266017,"60ee922fcc2b54102d237822","Edge 91.0.864.67","encoding_b3",2,"SS6",8,1272.09999999404,3,1,1,0,"motor_trial_cue","SS6",3,1,"rand","grocery store.png","porkB.png",3,3
"14/07/2021 20:04:47","14/07/2021 13:04:40",56975,3,4266017,"60ee922fcc2b54102d237822","Edge 91.0.864.67","encoding_b3",2,"SS6",10,997,1,1,1,0,"motor_trial_cue","SS6",3,1,"rand","grocery store.png","honeycombB.png",4,1
"14/07/2021 20:04:53","14/07/2021 13:04:45",56975,3,4266017,"60ee922fcc2b54102d237822","Edge 91.0.864.67","encoding_b3",2,"SS6",12,2152,3,1,1,0,"motor_trial_cue","SS6",3,1,"rand","grocery store.png","garlicB.png",5,3
"14/07/2021 20:04:57","14/07/2021 13:04:50",56975,3,4266017,"60ee922fcc2b54102d237822","Edge 91.0.864.67","encoding_b3",2,"SS6",14,816.20000000298,2,1,1,0,"motor_trial_cue","SS6",3,1,"rand","grocery store.png","brusselsproutsB.png",6,2
"14/07/2021 20:05:06","14/07/2021 13:04:58",56975,3,4266017,"60ee922fcc2b54102d237822","Edge 91.0.864.67","encoding_b3",2,"SS6",18,759.90000000596,3,1,1,0,"motor_trial_cue","SS6",3,2,"rand","grocery store.png","chocolatemilkB.png",1,3
"14/07/2021 20:05:10","14/07/2021 13:05:03",56975,3,4266017,"60ee922fcc2b54102d237822","Edge 91.0.864.67","encoding_b3",2,"SS6",20,1018.10000000894,4,1,1,0,"motor_trial_cue","SS6",3,2,"rand","grocery store.png","guavaB.png",2,4
"14/07/2021 20:05:14","14/07/2021 13:05:07",56975,3,4266017,"60ee922fcc2b54102d237822","Edge 91.0.864.67","encoding_b3",2,"SS6",22,882,2,1,1,0,"motor_trial_cue","SS6",3,2,"rand","grocery store.png","watermelonB.png",3,2
"14/07/2021 20:05:20","14/07/2021 13:05:12",56975,3,4266017,"60ee922fcc2b54102d237822","Edge 91.0.864.67","encoding_b3",2,"SS6",24,1699.59999999404,1,1,1,0,"motor_trial_cue","SS6",3,2,"rand","grocery store.png","soupB.png",4,1
"14/07/2021 20:05:24","14/07/2021 13:05:17",56975,3,4266017,"60ee922fcc2b54102d237822","Edge 91.0.864.67","encoding_b3",2,"SS6",26,1157.60000000894,4,1,1,0,"motor_trial_cue","SS6",3,2,"rand","grocery store.png","oliveoilB.png",5,4
"14/07/2021 20:05:29","14/07/2021 13:05:21",56975,3,4266017,"60ee922fcc2b54102d237822","Edge 91.0.864.67","encoding_b3",2,"SS6",28,1099.29999999702,1,1,1,0,"motor_trial_cue","SS6",3,2,"rand","grocery store.png","pieB.png",6,1
"14/07/2021 20:05:38","14/07/2021 13:05:30",56975,3,4266017,"60ee922fcc2b54102d237822","Edge 91.0.864.67","encoding_b3",2,"SS6",32,1354.79999999702,1,1,1,0,"motor_trial_mem","SS6",3,3,"pred","pet store.png","parrotB.png",1,1
"14/07/2021 20:05:42","14/07/2021 13:05:35",56975,3,4266017,"60ee922fcc2b54102d237822","Edge 91.0.864.67","encoding_b3",2,"SS6",34,679.800000011921,4,1,1,0,"motor_trial_mem","SS6",3,3,"pred","pet store.png","ratB.png",2,4
"14/07/2021 20:05:46","14/07/2021 13:05:39",56975,3,4266017,"60ee922fcc2b54102d237822","Edge 91.0.864.67","encoding_b3",2,"SS6",36,541.20000000298,3,1,1,0,"motor_trial_mem","SS6",3,3,"pred","pet store.png","tortoiseB.png",3,3
"14/07/2021 20:05:51","14/07/2021 13:05:43",56975,3,4266017,"60ee922fcc2b54102d237822","Edge 91.0.864.67","encoding_b3",2,"SS6",38,886.600000008941,4,1,1,0,"motor_trial_mem","SS6",3,3,"pred","pet store.png","pugB.png",4,4
"14/07/2021 20:05:55","14/07/2021 13:05:48",56975,3,4266017,"60ee922fcc2b54102d237822","Edge 91.0.864.67","encoding_b3",2,"SS6",40,994.399999991059,2,1,1,0,"motor_trial_mem","SS6",3,3,"pred","pet store.png","bettafishB.png",5,2
"14/07/2021 20:05:59","14/07/2021 13:05:52",56975,3,4266017,"60ee922fcc2b54102d237822","Edge 91.0.864.67","encoding_b3",2,"SS6",42,738,3,1,1,0,"motor_trial_mem","SS6",3,3,"pred","pet store.png","sheepB.png",6,3
"14/07/2021 20:06:08","14/07/2021 13:06:00",56975,3,4266017,"60ee922fcc2b54102d237822","Edge 91.0.864.67","encoding_b3",2,"SS6",46,1037.59999999404,1,1,1,0,"motor_trial_mem","SS6",3,4,"pred","pet store.png","gooseB.png",1,1
"14/07/2021 20:06:13","14/07/2021 13:06:05",56975,3,4266017,"60ee922fcc2b54102d237822","Edge 91.0.864.67","encoding_b3",2,"SS6",48,1237.80000001192,4,1,1,0,"motor_trial_mem","SS6",3,4,"pred","pet store.png","grasshopperB.png",2,4
"14/07/2021 20:06:17","14/07/2021 13:06:09",56975,3,4266017,"60ee922fcc2b54102d237822","Edge 91.0.864.67","encoding_b3",2,"SS6",50,350.09999999404,3,1,1,0,"motor_trial_mem","SS6",3,4,"pred","pet store.png","penguinB.png",3,3
"14/07/2021 20:06:21","14/07/2021 13:06:14",56975,3,4266017,"60ee922fcc2b54102d237822","Edge 91.0.864.67","encoding_b3",2,"SS6",52,1264.80000001192,4,1,1,0,"motor_trial_mem","SS6",3,4,"pred","pet store.png","pandaB.png",4,4
"14/07/2021 20:06:26","14/07/2021 13:06:18",56975,3,4266017,"60ee922fcc2b54102d237822","Edge 91.0.864.67","encoding_b3",2,"SS6",54,994.59999999404,2,1,1,0,"motor_trial_mem","SS6",3,4,"pred","pet store.png","bearB.png",5,2
"14/07/2021 20:06:30","14/07/2021 13:06:22",56975,3,4266017,"60ee922fcc2b54102d237822","Edge 91.0.864.67","encoding_b3",2,"SS6",56,445.70000000298,3,1,1,0,"motor_trial_mem","SS6",3,4,"pred","pet store.png","walrusB.png",6,3
"14/07/2021 20:08:16","14/07/2021 13:08:08",56975,3,4266017,"60ee922fcc2b54102d237822","Edge 91.0.864.67","encoding_b4",2,"SS6",4,909,1,1,1,0,"motor_trial_mem","SS6",4,1,"pred","pet store.png","wolfB.png",1,1
"14/07/2021 20:08:20","14/07/2021 13:08:12",56975,3,4266017,"60ee922fcc2b54102d237822","Edge 91.0.864.67","encoding_b4",2,"SS6",6,545.29999999702,4,1,1,0,"motor_trial_mem","SS6",4,1,"pred","pet store.png","hippoB.png",2,4
"14/07/2021 20:08:24","14/07/2021 13:08:17",56975,3,4266017,"60ee922fcc2b54102d237822","Edge 91.0.864.67","encoding_b4",2,"SS6",8,784.70000000298,3,1,1,0,"motor_trial_mem","SS6",4,1,"pred","pet store.png","hammerheadsharkB.png",3,3
"14/07/2021 20:08:29","14/07/2021 13:08:21",56975,3,4266017,"60ee922fcc2b54102d237822","Edge 91.0.864.67","encoding_b4",2,"SS6",10,1000.70000000298,4,1,1,0,"motor_trial_mem","SS6",4,1,"pred","pet store.png","mantisB.png",4,4
"14/07/2021 20:08:35","14/07/2021 13:08:28",56975,3,4266017,"60ee922fcc2b54102d237822","Edge 91.0.864.67","encoding_b4",2,"SS6",12,2866.5,2,1,1,0,"motor_trial_mem","SS6",4,1,"pred","pet store.png","badgerB.png",5,2
"14/07/2021 20:08:39","14/07/2021 13:08:32",56975,3,4266017,"60ee922fcc2b54102d237822","Edge 91.0.864.67","encoding_b4",2,"SS6",14,697.300000011921,3,1,1,0,"motor_trial_mem","SS6",4,1,"pred","pet store.png","iguanaB.png",6,3
"14/07/2021 20:08:48","14/07/2021 13:08:40",56975,3,4266017,"60ee922fcc2b54102d237822","Edge 91.0.864.67","encoding_b4",2,"SS6",18,1025.5,1,1,1,0,"motor_trial_mem","SS6",4,2,"pred","pet store.png","manateeB.png",1,1
"14/07/2021 20:08:52","14/07/2021 13:08:45",56975,3,4266017,"60ee922fcc2b54102d237822","Edge 91.0.864.67","encoding_b4",2,"SS6",20,929.79999999702,4,1,1,0,"motor_trial_mem","SS6",4,2,"pred","pet store.png","turtleB.png",2,4
"14/07/2021 20:08:57","14/07/2021 13:08:49",56975,3,4266017,"60ee922fcc2b54102d237822","Edge 91.0.864.67","encoding_b4",2,"SS6",22,805.70000000298,3,1,1,0,"motor_trial_mem","SS6",4,2,"pred","pet store.png","gorillaB.png",3,3
"14/07/2021 20:09:02","14/07/2021 13:08:54",56975,3,4266017,"60ee922fcc2b54102d237822","Edge 91.0.864.67","encoding_b4",2,"SS6",24,1375.90000000596,4,1,1,0,"motor_trial_mem","SS6",4,2,"pred","pet store.png","ostrichB.png",4,4
"14/07/2021 20:09:06","14/07/2021 13:08:58",56975,3,4266017,"60ee922fcc2b54102d237822","Edge 91.0.864.67","encoding_b4",2,"SS6",26,703.5,2,1,1,0,"motor_trial_mem","SS6",4,2,"pred","pet store.png","ladybugB.png",5,2
"14/07/2021 20:09:10","14/07/2021 13:09:02",56975,3,4266017,"60ee922fcc2b54102d237822","Edge 91.0.864.67","encoding_b4",2,"SS6",28,340.70000000298,3,1,1,0,"motor_trial_mem","SS6",4,2,"pred","pet store.png","horseB.png",6,3
"14/07/2021 20:09:18","14/07/2021 13:09:11",56975,3,4266017,"60ee922fcc2b54102d237822","Edge 91.0.864.67","encoding_b4",2,"SS6",32,1205.79999999702,2,1,1,0,"motor_trial_cue","SS6",4,3,"rand","grocery store.png","burgerB.png",1,2
"14/07/2021 20:09:23","14/07/2021 13:09:15",56975,3,4266017,"60ee922fcc2b54102d237822","Edge 91.0.864.67","encoding_b4",2,"SS6",34,941.70000000298,4,1,1,0,"motor_trial_cue","SS6",4,3,"rand","grocery store.png","coconutB.png",2,4
"14/07/2021 20:09:27","14/07/2021 13:09:20",56975,3,4266017,"60ee922fcc2b54102d237822","Edge 91.0.864.67","encoding_b4",2,"SS6",36,1077.79999999702,3,1,1,0,"motor_trial_cue","SS6",4,3,"rand","grocery store.png","cornB.png",3,3
"14/07/2021 20:09:32","14/07/2021 13:09:25",56975,3,4266017,"60ee922fcc2b54102d237822","Edge 91.0.864.67","encoding_b4",2,"SS6",38,1195.40000000596,1,1,1,0,"motor_trial_cue","SS6",4,3,"rand","grocery store.png","chocolateB.png",4,1
"14/07/2021 20:09:37","14/07/2021 13:09:29",56975,3,4266017,"60ee922fcc2b54102d237822","Edge 91.0.864.67","encoding_b4",2,"SS6",40,1194.20000000298,4,1,1,0,"motor_trial_cue","SS6",4,3,"rand","grocery store.png","pancakesB.png",5,4
"14/07/2021 20:09:41","14/07/2021 13:09:33",56975,3,4266017,"60ee922fcc2b54102d237822","Edge 91.0.864.67","encoding_b4",2,"SS6",42,647.40000000596,1,1,1,0,"motor_trial_cue","SS6",4,3,"rand","grocery store.png","cerealB.png",6,1
"14/07/2021 20:09:50","14/07/2021 13:09:42",56975,3,4266017,"60ee922fcc2b54102d237822","Edge 91.0.864.67","encoding_b4",2,"SS6",46,1323.69999998808,4,1,1,0,"motor_trial_cue","SS6",4,4,"rand","grocery store.png","appleB.png",1,4
"14/07/2021 20:09:55","14/07/2021 13:09:47",56975,3,4266017,"60ee922fcc2b54102d237822","Edge 91.0.864.67","encoding_b4",2,"SS6",48,1264.70000000298,2,1,1,0,"motor_trial_cue","SS6",4,4,"rand","grocery store.png","edamameB.png",2,2
"14/07/2021 20:09:59","14/07/2021 13:09:51",56975,3,4266017,"60ee922fcc2b54102d237822","Edge 91.0.864.67","encoding_b4",2,"SS6",50,515.20000000298,3,1,1,0,"motor_trial_cue","SS6",4,4,"rand","grocery store.png","cookedchickenB.png",3,3
"14/07/2021 20:10:03","14/07/2021 13:09:55",56975,3,4266017,"60ee922fcc2b54102d237822","Edge 91.0.864.67","encoding_b4",2,"SS6",52,742.40000000596,1,1,1,0,"motor_trial_cue","SS6",4,4,"rand","grocery store.png","bellpeppersB.png",4,1
"14/07/2021 20:10:07","14/07/2021 13:09:59",56975,3,4266017,"60ee922fcc2b54102d237822","Edge 91.0.864.67","encoding_b4",2,"SS6",54,531.20000000298,2,1,1,0,"motor_trial_cue","SS6",4,4,"rand","grocery store.png","croissantB.png",5,2
"14/07/2021 20:10:11","14/07/2021 13:10:04",56975,3,4266017,"60ee922fcc2b54102d237822","Edge 91.0.864.67","encoding_b4",2,"SS6",56,810.5,1,1,1,0,"motor_trial_cue","SS6",4,4,"rand","grocery store.png","lemonB.png",6,1
"14/07/2021 20:15:06","14/07/2021 13:14:58",56975,3,4266017,"60ee922fcc2b54102d237822","Edge 91.0.864.67","encoding_b5",2,"SS6",4,1376.60000000894,2,1,1,0,"motor_trial_cue","SS6",5,1,"rand","grocery store.png","strawberriesB.png",1,2
"14/07/2021 20:15:10","14/07/2021 13:15:03",56975,3,4266017,"60ee922fcc2b54102d237822","Edge 91.0.864.67","encoding_b5",2,"SS6",6,990.40000000596,3,1,1,0,"motor_trial_cue","SS6",5,1,"rand","grocery store.png","donutB.png",2,3
"14/07/2021 20:15:15","14/07/2021 13:15:07",56975,3,4266017,"60ee922fcc2b54102d237822","Edge 91.0.864.67","encoding_b5",2,"SS6",8,1394.5,1,1,1,0,"motor_trial_cue","SS6",5,1,"rand","grocery store.png","cantaloupeB.png",3,1
"14/07/2021 20:15:20","14/07/2021 13:15:12",56975,3,4266017,"60ee922fcc2b54102d237822","Edge 91.0.864.67","encoding_b5",2,"SS6",10,1455.79999999702,3,1,1,0,"motor_trial_cue","SS6",5,1,"rand","grocery store.png","pineappleB.png",4,3
"14/07/2021 20:15:24","14/07/2021 13:15:17",56975,3,4266017,"60ee922fcc2b54102d237822","Edge 91.0.864.67","encoding_b5",2,"SS6",12,910.699999988079,4,1,1,0,"motor_trial_cue","SS6",5,1,"rand","grocery store.png","muffinB.png",5,4
"14/07/2021 20:15:29","14/07/2021 13:15:21",56975,3,4266017,"60ee922fcc2b54102d237822","Edge 91.0.864.67","encoding_b5",2,"SS6",14,825.600000008941,1,1,1,0,"motor_trial_cue","SS6",5,1,"rand","grocery store.png","carrotsB.png",6,1
"14/07/2021 20:15:37","14/07/2021 13:15:29",56975,3,4266017,"60ee922fcc2b54102d237822","Edge 91.0.864.67","encoding_b5",2,"SS6",18,721.300000011921,3,1,1,0,"motor_trial_cue","SS6",5,2,"rand","grocery store.png","icecreamsandwichB.png",1,3
"14/07/2021 20:15:41","14/07/2021 13:15:34",56975,3,4266017,"60ee922fcc2b54102d237822","Edge 91.0.864.67","encoding_b5",2,"SS6",20,980,1,1,1,0,"motor_trial_cue","SS6",5,2,"rand","grocery store.png","popcornB.png",2,1
"14/07/2021 20:15:46","14/07/2021 13:15:38",56975,3,4266017,"60ee922fcc2b54102d237822","Edge 91.0.864.67","encoding_b5",2,"SS6",22,922.800000011921,2,1,1,0,"motor_trial_cue","SS6",5,2,"rand","grocery store.png","cheeseB.png",3,2
"14/07/2021 20:15:51","14/07/2021 13:15:43",56975,3,4266017,"60ee922fcc2b54102d237822","Edge 91.0.864.67","encoding_b5",2,"SS6",24,1305.70000000298,1,1,1,0,"motor_trial_cue","SS6",5,2,"rand","grocery store.png","poutineB.png",4,1
"14/07/2021 20:15:55","14/07/2021 13:15:48",56975,3,4266017,"60ee922fcc2b54102d237822","Edge 91.0.864.67","encoding_b5",2,"SS6",26,1031.70000000298,4,1,1,0,"motor_trial_cue","SS6",5,2,"rand","grocery store.png","ravioliB.png",5,4
"14/07/2021 20:16:00","14/07/2021 13:15:52",56975,3,4266017,"60ee922fcc2b54102d237822","Edge 91.0.864.67","encoding_b5",2,"SS6",28,747.29999999702,2,1,1,0,"motor_trial_cue","SS6",5,2,"rand","grocery store.png","seaweedB.png",6,2
"14/07/2021 20:16:08","14/07/2021 13:16:01",56975,3,4266017,"60ee922fcc2b54102d237822","Edge 91.0.864.67","encoding_b5",2,"SS6",32,906.100000008941,1,1,1,0,"motor_trial_mem","SS6",5,3,"pred","pet store.png","hedgehogB.png",1,1
"14/07/2021 20:16:12","14/07/2021 13:16:05",56975,3,4266017,"60ee922fcc2b54102d237822","Edge 91.0.864.67","encoding_b5",2,"SS6",34,691.20000000298,4,1,1,0,"motor_trial_mem","SS6",5,3,"pred","pet store.png","deerB.png",2,4
"14/07/2021 20:16:18","14/07/2021 13:16:10",56975,3,4266017,"60ee922fcc2b54102d237822","Edge 91.0.864.67","encoding_b5",2,"SS6",36,2180.5,3,1,1,0,"motor_trial_mem","SS6",5,3,"pred","pet store.png","redpandaB.png",3,3
"14/07/2021 20:16:22","14/07/2021 13:16:15",56975,3,4266017,"60ee922fcc2b54102d237822","Edge 91.0.864.67","encoding_b5",2,"SS6",38,1037.39999999106,4,1,1,0,"motor_trial_mem","SS6",5,3,"pred","pet store.png","goldenretrieverB.png",4,4
"14/07/2021 20:16:27","14/07/2021 13:16:20",56975,3,4266017,"60ee922fcc2b54102d237822","Edge 91.0.864.67","encoding_b5",2,"SS6",40,1361.5,2,1,1,0,"motor_trial_mem","SS6",5,3,"pred","pet store.png","cuttlefishB.png",5,2
"14/07/2021 20:16:31","14/07/2021 13:16:24",56975,3,4266017,"60ee922fcc2b54102d237822","Edge 91.0.864.67","encoding_b5",2,"SS6",42,554.399999991059,3,1,1,0,"motor_trial_mem","SS6",5,3,"pred","pet store.png","sharkB.png",6,3
"14/07/2021 20:16:40","14/07/2021 13:16:33",56975,3,4266017,"60ee922fcc2b54102d237822","Edge 91.0.864.67","encoding_b5",2,"SS6",46,1382.5,1,1,1,0,"motor_trial_mem","SS6",5,4,"pred","pet store.png","hermitcrabB.png",1,1
"14/07/2021 20:16:44","14/07/2021 13:16:36",56975,3,4266017,"60ee922fcc2b54102d237822","Edge 91.0.864.67","encoding_b5",2,"SS6",48,125.90000000596,4,1,1,0,"motor_trial_mem","SS6",5,4,"pred","pet store.png","pangolinB.png",2,4
"14/07/2021 20:16:48","14/07/2021 13:16:41",56975,3,4266017,"60ee922fcc2b54102d237822","Edge 91.0.864.67","encoding_b5",2,"SS6",50,720.79999999702,3,1,1,0,"motor_trial_mem","SS6",5,4,"pred","pet store.png","chameleonB.png",3,3
"14/07/2021 20:16:52","14/07/2021 13:16:45",56975,3,4266017,"60ee922fcc2b54102d237822","Edge 91.0.864.67","encoding_b5",2,"SS6",52,745,4,1,1,0,"motor_trial_mem","SS6",5,4,"pred","pet store.png","mooseB.png",4,4
"14/07/2021 20:16:57","14/07/2021 13:16:50",56975,3,4266017,"60ee922fcc2b54102d237822","Edge 91.0.864.67","encoding_b5",2,"SS6",54,1198,2,1,1,0,"motor_trial_mem","SS6",5,4,"pred","pet store.png","toucanB.png",5,2
"14/07/2021 20:17:02","14/07/2021 13:16:54",56975,3,4266017,"60ee922fcc2b54102d237822","Edge 91.0.864.67","encoding_b5",2,"SS6",56,798,3,1,1,0,"motor_trial_mem","SS6",5,4,"pred","pet store.png","platypusB.png",6,3
"14/07/2021 20:18:44","14/07/2021 13:18:37",56975,3,4266017,"60ee922fcc2b54102d237822","Edge 91.0.864.67","encoding_b6",2,"SS6",4,2671.20000000298,1,1,1,0,"motor_trial_mem","SS6",6,1,"pred","pet store.png","pigB.png",1,1
"14/07/2021 20:18:48","14/07/2021 13:18:41",56975,3,4266017,"60ee922fcc2b54102d237822","Edge 91.0.864.67","encoding_b6",2,"SS6",6,678.20000000298,4,1,1,0,"motor_trial_mem","SS6",6,1,"pred","pet store.png","whaleB.png",2,4
"14/07/2021 20:18:53","14/07/2021 13:18:46",56975,3,4266017,"60ee922fcc2b54102d237822","Edge 91.0.864.67","encoding_b6",2,"SS6",8,1159.19999998808,3,1,1,0,"motor_trial_mem","SS6",6,1,"pred","pet store.png","giraffeB.png",3,3
"14/07/2021 20:18:59","14/07/2021 13:18:52",56975,3,4266017,"60ee922fcc2b54102d237822","Edge 91.0.864.67","encoding_b6",2,"SS6",10,2309.79999999702,4,1,1,0,"motor_trial_mem","SS6",6,1,"pred","pet store.png","camelB.png",4,4
"14/07/2021 20:19:03","14/07/2021 13:18:56",56975,3,4266017,"60ee922fcc2b54102d237822","Edge 91.0.864.67","encoding_b6",2,"SS6",12,775,2,1,1,0,"motor_trial_mem","SS6",6,1,"pred","pet store.png","crabB.png",5,2
"14/07/2021 20:19:07","14/07/2021 13:19:00",56975,3,4266017,"60ee922fcc2b54102d237822","Edge 91.0.864.67","encoding_b6",2,"SS6",14,543.699999988079,3,1,1,0,"motor_trial_mem","SS6",6,1,"pred","pet store.png","rhinoB.png",6,3
"14/07/2021 20:19:16","14/07/2021 13:19:09",56975,3,4266017,"60ee922fcc2b54102d237822","Edge 91.0.864.67","encoding_b6",2,"SS6",18,1140.5,2,1,1,0,"motor_trial_cue","SS6",6,2,"rand","grocery store.png","bakedpotatoB.png",1,2
"14/07/2021 20:19:20","14/07/2021 13:19:13",56975,3,4266017,"60ee922fcc2b54102d237822","Edge 91.0.864.67","encoding_b6",2,"SS6",20,801.90000000596,1,1,1,0,"motor_trial_cue","SS6",6,2,"rand","grocery store.png","orangeB.png",2,1
"14/07/2021 20:19:25","14/07/2021 13:19:17",56975,3,4266017,"60ee922fcc2b54102d237822","Edge 91.0.864.67","encoding_b6",2,"SS6",22,781.59999999404,4,1,1,0,"motor_trial_cue","SS6",6,2,"rand","grocery store.png","avocadoB.png",3,4
"14/07/2021 20:19:29","14/07/2021 13:19:22",56975,3,4266017,"60ee922fcc2b54102d237822","Edge 91.0.864.67","encoding_b6",2,"SS6",24,839.70000000298,3,1,1,0,"motor_trial_cue","SS6",6,2,"rand","grocery store.png","grapesB.png",4,3
"14/07/2021 20:19:33","14/07/2021 13:19:26",56975,3,4266017,"60ee922fcc2b54102d237822","Edge 91.0.864.67","encoding_b6",2,"SS6",26,566.40000000596,4,1,1,0,"motor_trial_cue","SS6",6,2,"rand","grocery store.png","mushroomsB.png",5,4
"14/07/2021 20:19:38","14/07/2021 13:19:30",56975,3,4266017,"60ee922fcc2b54102d237822","Edge 91.0.864.67","encoding_b6",2,"SS6",28,1093.10000000894,1,1,1,0,"motor_trial_cue","SS6",6,2,"rand","grocery store.png","dragonfruitB.png",6,1
"14/07/2021 20:19:47","14/07/2021 13:19:39",56975,3,4266017,"60ee922fcc2b54102d237822","Edge 91.0.864.67","encoding_b6",2,"SS6",32,1317.09999999404,1,1,1,0,"motor_trial_mem","SS6",6,3,"pred","pet store.png","eagleB.png",1,1
"14/07/2021 20:19:51","14/07/2021 13:19:43",56975,3,4266017,"60ee922fcc2b54102d237822","Edge 91.0.864.67","encoding_b6",2,"SS6",34,894.79999999702,4,1,1,0,"motor_trial_mem","SS6",6,3,"pred","pet store.png","beetleB.png",2,4
"14/07/2021 20:19:57","14/07/2021 13:19:49",56975,3,4266017,"60ee922fcc2b54102d237822","Edge 91.0.864.67","encoding_b6",2,"SS6",36,2339.10000000894,3,1,1,0,"motor_trial_mem","SS6",6,3,"pred","pet store.png","pufferfishB.png",3,3
"14/07/2021 20:20:01","14/07/2021 13:19:54",56975,3,4266017,"60ee922fcc2b54102d237822","Edge 91.0.864.67","encoding_b6",2,"SS6",38,1140.70000000298,4,1,1,0,"motor_trial_mem","SS6",6,3,"pred","pet store.png","vultureB.png",4,4
"14/07/2021 20:20:06","14/07/2021 13:19:59",56975,3,4266017,"60ee922fcc2b54102d237822","Edge 91.0.864.67","encoding_b6",2,"SS6",40,1088,2,1,1,0,"motor_trial_mem","SS6",6,3,"pred","pet store.png","frogB.png",5,2
"14/07/2021 20:20:10","14/07/2021 13:20:02",56975,3,4266017,"60ee922fcc2b54102d237822","Edge 91.0.864.67","encoding_b6",2,"SS6",42,334.79999999702,3,1,1,0,"motor_trial_mem","SS6",6,3,"pred","pet store.png","octopusB.png",6,3
"14/07/2021 20:20:18","14/07/2021 13:20:11",56975,3,4266017,"60ee922fcc2b54102d237822","Edge 91.0.864.67","encoding_b6",2,"SS6",46,955.600000008941,3,1,1,0,"motor_trial_cue","SS6",6,4,"rand","grocery store.png","ramenB.png",1,3
"14/07/2021 20:20:23","14/07/2021 13:20:16",56975,3,4266017,"60ee922fcc2b54102d237822","Edge 91.0.864.67","encoding_b6",2,"SS6",48,1252.10000000894,1,1,1,0,"motor_trial_cue","SS6",6,4,"rand","grocery store.png","cabbageB.png",2,1
"14/07/2021 20:20:27","14/07/2021 13:20:20",56975,3,4266017,"60ee922fcc2b54102d237822","Edge 91.0.864.67","encoding_b6",2,"SS6",50,694.70000000298,4,1,1,0,"motor_trial_cue","SS6",6,4,"rand","grocery store.png","peachesB.png",3,4
"14/07/2021 20:20:32","14/07/2021 13:20:25",56975,3,4266017,"60ee922fcc2b54102d237822","Edge 91.0.864.67","encoding_b6",2,"SS6",52,1425.40000000596,2,1,1,0,"motor_trial_cue","SS6",6,4,"rand","grocery store.png","peanutbutterB.png",4,2
"14/07/2021 20:20:37","14/07/2021 13:20:29",56975,3,4266017,"60ee922fcc2b54102d237822","Edge 91.0.864.67","encoding_b6",2,"SS6",54,931.600000008941,4,1,1,0,"motor_trial_cue","SS6",6,4,"rand","grocery store.png","clamsB.png",5,4
"14/07/2021 20:20:42","14/07/2021 13:20:34",56975,3,4266017,"60ee922fcc2b54102d237822","Edge 91.0.864.67","encoding_b6",2,"SS6",56,1244.59999999404,1,1,1,0,"motor_trial_cue","SS6",6,4,"rand","grocery store.png","granolaB.png",6,1
"14/07/2021 20:22:07","14/07/2021 13:22:00",56975,3,4266017,"60ee922fcc2b54102d237822","Edge 91.0.864.67","encoding_b7",2,"SS6",4,1219.5,1,1,1,0,"motor_trial_mem","SS6",7,1,"pred","pet store.png","emuB.png",1,1
"14/07/2021 20:22:12","14/07/2021 13:22:04",56975,3,4266017,"60ee922fcc2b54102d237822","Edge 91.0.864.67","encoding_b7",2,"SS6",6,1158.20000000298,4,1,1,0,"motor_trial_mem","SS6",7,1,"pred","pet store.png","stingrayB.png",2,4
"14/07/2021 20:22:17","14/07/2021 13:22:10",56975,3,4266017,"60ee922fcc2b54102d237822","Edge 91.0.864.67","encoding_b7",2,"SS6",8,2048.10000000894,3,1,1,0,"motor_trial_mem","SS6",7,1,"pred","pet store.png","armadilloB.png",3,3
"14/07/2021 20:22:23","14/07/2021 13:22:15",56975,3,4266017,"60ee922fcc2b54102d237822","Edge 91.0.864.67","encoding_b7",2,"SS6",10,1768.80000001192,4,1,1,0,"motor_trial_mem","SS6",7,1,"pred","pet store.png","canadiangooseB.png",4,4
"14/07/2021 20:22:29","14/07/2021 13:22:21",56975,3,4266017,"60ee922fcc2b54102d237822","Edge 91.0.864.67","encoding_b7",2,"SS6",12,2542.5,2,1,1,0,"motor_trial_mem","SS6",7,1,"pred","pet store.png","bisonB.png",5,2
"14/07/2021 20:22:33","14/07/2021 13:22:25",56975,3,4266017,"60ee922fcc2b54102d237822","Edge 91.0.864.67","encoding_b7",2,"SS6",14,585.5,3,1,1,0,"motor_trial_mem","SS6",7,1,"pred","pet store.png","lionB.png",6,3
"14/07/2021 20:22:41","14/07/2021 13:22:34",56975,3,4266017,"60ee922fcc2b54102d237822","Edge 91.0.864.67","encoding_b7",2,"SS6",18,1106.20000000298,2,1,1,0,"motor_trial_cue","SS6",7,2,"rand","grocery store.png","smoresB.png",1,2
"14/07/2021 20:22:46","14/07/2021 13:22:38",56975,3,4266017,"60ee922fcc2b54102d237822","Edge 91.0.864.67","encoding_b7",2,"SS6",20,901.199999988079,3,1,1,0,"motor_trial_cue","SS6",7,2,"rand","grocery store.png","butterB.png",2,3
"14/07/2021 20:22:50","14/07/2021 13:22:43",56975,3,4266017,"60ee922fcc2b54102d237822","Edge 91.0.864.67","encoding_b7",2,"SS6",22,1088,1,1,1,0,"motor_trial_cue","SS6",7,2,"rand","grocery store.png","coffeeB.png",3,1
"14/07/2021 20:22:55","14/07/2021 13:22:47",56975,3,4266017,"60ee922fcc2b54102d237822","Edge 91.0.864.67","encoding_b7",2,"SS6",24,899.5,4,1,1,0,"motor_trial_cue","SS6",7,2,"rand","grocery store.png","pizzaB.png",4,4
"14/07/2021 20:22:59","14/07/2021 13:22:52",56975,3,4266017,"60ee922fcc2b54102d237822","Edge 91.0.864.67","encoding_b7",2,"SS6",26,830.20000000298,1,1,1,0,"motor_trial_cue","SS6",7,2,"rand","grocery store.png","potatochipsB.png",5,1
"14/07/2021 20:23:04","14/07/2021 13:22:56",56975,3,4266017,"60ee922fcc2b54102d237822","Edge 91.0.864.67","encoding_b7",2,"SS6",28,1105,3,1,1,0,"motor_trial_cue","SS6",7,2,"rand","grocery store.png","cupnoodleB.png",6,3
"14/07/2021 20:23:13","14/07/2021 13:23:05",56975,3,4266017,"60ee922fcc2b54102d237822","Edge 91.0.864.67","encoding_b7",2,"SS6",32,1276.90000000596,1,1,1,0,"motor_trial_mem","SS6",7,3,"pred","pet store.png","boarB.png",1,1
"14/07/2021 20:23:17","14/07/2021 13:23:09",56975,3,4266017,"60ee922fcc2b54102d237822","Edge 91.0.864.67","encoding_b7",2,"SS6",34,350.90000000596,4,1,1,0,"motor_trial_mem","SS6",7,3,"pred","pet store.png","lemurB.png",2,4
"14/07/2021 20:23:22","14/07/2021 13:23:14",56975,3,4266017,"60ee922fcc2b54102d237822","Edge 91.0.864.67","encoding_b7",2,"SS6",36,1663.5,3,1,1,0,"motor_trial_mem","SS6",7,3,"pred","pet store.png","flamingoB.png",3,3
"14/07/2021 20:23:26","14/07/2021 13:23:19",56975,3,4266017,"60ee922fcc2b54102d237822","Edge 91.0.864.67","encoding_b7",2,"SS6",38,745.20000000298,4,1,1,0,"motor_trial_mem","SS6",7,3,"pred","pet store.png","catB.png",4,4
"14/07/2021 20:23:31","14/07/2021 13:23:24",56975,3,4266017,"60ee922fcc2b54102d237822","Edge 91.0.864.67","encoding_b7",2,"SS6",40,1624.10000000894,2,1,1,0,"motor_trial_mem","SS6",7,3,"pred","pet store.png","donkeyB.png",5,2
"14/07/2021 20:23:35","14/07/2021 13:23:28",56975,3,4266017,"60ee922fcc2b54102d237822","Edge 91.0.864.67","encoding_b7",2,"SS6",42,468.899999991059,3,1,1,0,"motor_trial_mem","SS6",7,3,"pred","pet store.png","toadB.png",6,3
"14/07/2021 20:23:44","14/07/2021 13:23:36",56975,3,4266017,"60ee922fcc2b54102d237822","Edge 91.0.864.67","encoding_b7",2,"SS6",46,1065.5,2,1,1,0,"motor_trial_cue","SS6",7,4,"rand","grocery store.png","onionB.png",1,2
"14/07/2021 20:23:49","14/07/2021 13:23:41",56975,3,4266017,"60ee922fcc2b54102d237822","Edge 91.0.864.67","encoding_b7",2,"SS6",48,1588.89999999106,4,1,1,0,"motor_trial_cue","SS6",7,4,"rand","grocery store.png","cupcakeB.png",2,4
"14/07/2021 20:23:53","14/07/2021 13:23:46",56975,3,4266017,"60ee922fcc2b54102d237822","Edge 91.0.864.67","encoding_b7",2,"SS6",50,986.70000000298,3,1,1,0,"motor_trial_cue","SS6",7,4,"rand","grocery store.png","acaibowlB.png",3,3
"14/07/2021 20:23:58","14/07/2021 13:23:50",56975,3,4266017,"60ee922fcc2b54102d237822","Edge 91.0.864.67","encoding_b7",2,"SS6",52,1016.90000000596,1,1,1,0,"motor_trial_cue","SS6",7,4,"rand","grocery store.png","lycheeB.png",4,1
"14/07/2021 20:24:02","14/07/2021 13:23:55",56975,3,4266017,"60ee922fcc2b54102d237822","Edge 91.0.864.67","encoding_b7",2,"SS6",54,654.59999999404,3,1,1,0,"motor_trial_cue","SS6",7,4,"rand","grocery store.png","jalapenoB.png",5,3
"14/07/2021 20:24:07","14/07/2021 13:23:59",56975,3,4266017,"60ee922fcc2b54102d237822","Edge 91.0.864.67","encoding_b7",2,"SS6",56,1197.20000000298,4,1,1,0,"motor_trial_cue","SS6",7,4,"rand","grocery store.png","fortunecookieB.png",6,4
"14/07/2021 20:25:34","14/07/2021 13:25:27",56975,3,4266017,"60ee922fcc2b54102d237822","Edge 91.0.864.67","encoding_b8",2,"SS6",4,1022.19999998808,3,1,1,0,"motor_trial_cue","SS6",8,1,"rand","grocery store.png","hummusB.png",1,3
"14/07/2021 20:25:39","14/07/2021 13:25:31",56975,3,4266017,"60ee922fcc2b54102d237822","Edge 91.0.864.67","encoding_b8",2,"SS6",6,1054.29999999702,2,1,1,0,"motor_trial_cue","SS6",8,1,"rand","grocery store.png","blackpepperB.png",2,2
"14/07/2021 20:25:43","14/07/2021 13:25:36",56975,3,4266017,"60ee922fcc2b54102d237822","Edge 91.0.864.67","encoding_b8",2,"SS6",8,1046.5,4,1,1,0,"motor_trial_cue","SS6",8,1,"rand","grocery store.png","baconB.png",3,4
"14/07/2021 20:25:48","14/07/2021 13:25:41",56975,3,4266017,"60ee922fcc2b54102d237822","Edge 91.0.864.67","encoding_b8",2,"SS6",10,1230.5,1,1,1,0,"motor_trial_cue","SS6",8,1,"rand","grocery store.png","cherriesB.png",4,1
"14/07/2021 20:25:52","14/07/2021 13:25:45",56975,3,4266017,"60ee922fcc2b54102d237822","Edge 91.0.864.67","encoding_b8",2,"SS6",12,912.79999999702,2,1,1,0,"motor_trial_cue","SS6",8,1,"rand","grocery store.png","acornsquashB.png",5,2
"14/07/2021 20:25:57","14/07/2021 13:25:49",56975,3,4266017,"60ee922fcc2b54102d237822","Edge 91.0.864.67","encoding_b8",2,"SS6",14,616.79999999702,1,1,1,0,"motor_trial_cue","SS6",8,1,"rand","grocery store.png","gummybearsB.png",6,1
"14/07/2021 20:26:06","14/07/2021 13:25:58",56975,3,4266017,"60ee922fcc2b54102d237822","Edge 91.0.864.67","encoding_b8",2,"SS6",18,1651.70000000298,1,1,1,0,"motor_trial_mem","SS6",8,2,"pred","pet store.png","owlB.png",1,1
"14/07/2021 20:26:10","14/07/2021 13:26:02",56975,3,4266017,"60ee922fcc2b54102d237822","Edge 91.0.864.67","encoding_b8",2,"SS6",20,451.20000000298,4,1,1,0,"motor_trial_mem","SS6",8,2,"pred","pet store.png","snakeB.png",2,4
"14/07/2021 20:26:14","14/07/2021 13:26:06",56975,3,4266017,"60ee922fcc2b54102d237822","Edge 91.0.864.67","encoding_b8",2,"SS6",22,511.5,3,1,1,0,"motor_trial_mem","SS6",8,2,"pred","pet store.png","koalaB.png",3,3
"14/07/2021 20:26:18","14/07/2021 13:26:11",56975,3,4266017,"60ee922fcc2b54102d237822","Edge 91.0.864.67","encoding_b8",2,"SS6",24,884.70000000298,4,1,1,0,"motor_trial_mem","SS6",8,2,"pred","pet store.png","dragonflyB.png",4,4
"14/07/2021 20:26:22","14/07/2021 13:26:15",56975,3,4266017,"60ee922fcc2b54102d237822","Edge 91.0.864.67","encoding_b8",2,"SS6",26,566.29999999702,2,1,1,0,"motor_trial_mem","SS6",8,2,"pred","pet store.png","llamaB.png",5,2
"14/07/2021 20:26:26","14/07/2021 13:26:19",56975,3,4266017,"60ee922fcc2b54102d237822","Edge 91.0.864.67","encoding_b8",2,"SS6",28,517.20000000298,3,1,1,0,"motor_trial_mem","SS6",8,2,"pred","pet store.png","foxB.png",6,3
"14/07/2021 20:26:35","14/07/2021 13:26:27",56975,3,4266017,"60ee922fcc2b54102d237822","Edge 91.0.864.67","encoding_b8",2,"SS6",32,1090,3,1,1,0,"motor_trial_cue","SS6",8,3,"rand","grocery store.png","bagelB.png",1,3
"14/07/2021 20:26:39","14/07/2021 13:26:32",56975,3,4266017,"60ee922fcc2b54102d237822","Edge 91.0.864.67","encoding_b8",2,"SS6",34,680.59999999404,4,1,1,0,"motor_trial_cue","SS6",8,3,"rand","grocery store.png","artichokeB.png",2,4
"14/07/2021 20:26:44","14/07/2021 13:26:36",56975,3,4266017,"60ee922fcc2b54102d237822","Edge 91.0.864.67","encoding_b8",2,"SS6",36,868.199999988079,2,1,1,0,"motor_trial_cue","SS6",8,3,"rand","grocery store.png","mustardB.png",3,2
"14/07/2021 20:26:48","14/07/2021 13:26:40",56975,3,4266017,"60ee922fcc2b54102d237822","Edge 91.0.864.67","encoding_b8",2,"SS6",38,768.20000000298,4,1,1,0,"motor_trial_cue","SS6",8,3,"rand","grocery store.png","milkB.png",4,4
"14/07/2021 20:26:52","14/07/2021 13:26:45",56975,3,4266017,"60ee922fcc2b54102d237822","Edge 91.0.864.67","encoding_b8",2,"SS6",40,981.5,1,1,1,0,"motor_trial_cue","SS6",8,3,"rand","grocery store.png","basilB.png",5,1
"14/07/2021 20:26:56","14/07/2021 13:26:49",56975,3,4266017,"60ee922fcc2b54102d237822","Edge 91.0.864.67","encoding_b8",2,"SS6",42,512,2,1,1,0,"motor_trial_cue","SS6",8,3,"rand","grocery store.png","breadB.png",6,2
"14/07/2021 20:27:06","14/07/2021 13:26:58",56975,3,4266017,"60ee922fcc2b54102d237822","Edge 91.0.864.67","encoding_b8",2,"SS6",46,1811.59999999404,1,1,1,0,"motor_trial_mem","SS6",8,4,"pred","pet store.png","batB.png",1,1
"14/07/2021 20:27:09","14/07/2021 13:27:02",56975,3,4266017,"60ee922fcc2b54102d237822","Edge 91.0.864.67","encoding_b8",2,"SS6",48,200.59999999404,4,1,1,0,"motor_trial_mem","SS6",8,4,"pred","pet store.png","ferretB.png",2,4
"14/07/2021 20:27:14","14/07/2021 13:27:07",56975,3,4266017,"60ee922fcc2b54102d237822","Edge 91.0.864.67","encoding_b8",2,"SS6",50,1117.39999999106,3,1,1,0,"motor_trial_mem","SS6",8,4,"pred","pet store.png","squidB.png",3,3
"14/07/2021 20:27:18","14/07/2021 13:27:11",56975,3,4266017,"60ee922fcc2b54102d237822","Edge 91.0.864.67","encoding_b8",2,"SS6",52,898.800000011921,4,1,1,0,"motor_trial_mem","SS6",8,4,"pred","pet store.png","cardinalB.png",4,4
"14/07/2021 20:27:22","14/07/2021 13:27:15",56975,3,4266017,"60ee922fcc2b54102d237822","Edge 91.0.864.67","encoding_b8",2,"SS6",54,387.300000011921,2,1,1,0,"motor_trial_mem","SS6",8,4,"pred","pet store.png","crowB.png",5,2
"14/07/2021 20:27:26","14/07/2021 13:27:19",56975,3,4266017,"60ee922fcc2b54102d237822","Edge 91.0.864.67","encoding_b8",2,"SS6",56,346.5,3,1,1,0,"motor_trial_mem","SS6",8,4,"pred","pet store.png","hummingbirdB.png",6,3
"30/07/2021 14:06:36","30/07/2021 10:06:36",56975,3,4382111,"60fead405d4fefc6731afbcc","Chrome 92.0.4515.107","encoding_b1",3,"SS7",4,1635.5,3,1,1,0,"motor_trial_mem","SS7",1,1,"pred","grocery store.png","carrotsB.png",1,3
"30/07/2021 14:06:40","30/07/2021 10:06:40",56975,3,4382111,"60fead405d4fefc6731afbcc","Chrome 92.0.4515.107","encoding_b1",3,"SS7",6,888.600000023842,2,1,1,0,"motor_trial_mem","SS7",1,1,"pred","grocery store.png","pancakesB.png",2,2
"30/07/2021 14:06:45","30/07/2021 10:06:45",56975,3,4382111,"60fead405d4fefc6731afbcc","Chrome 92.0.4515.107","encoding_b1",3,"SS7",8,1602.19999998808,4,1,1,0,"motor_trial_mem","SS7",1,1,"pred","grocery store.png","brusselsproutsB.png",3,4
"30/07/2021 14:06:50","30/07/2021 10:06:50",56975,3,4382111,"60fead405d4fefc6731afbcc","Chrome 92.0.4515.107","encoding_b1",3,"SS7",10,1419.5,1,1,0,0,"motor_trial_mem","SS7",1,1,"pred","grocery store.png","cinnamonB.png",4,2
"30/07/2021 14:06:56","30/07/2021 10:06:56",56975,3,4382111,"60fead405d4fefc6731afbcc","Chrome 92.0.4515.107","encoding_b1",3,"SS7",12,2418.80000001192,1,1,1,0,"motor_trial_mem","SS7",1,1,"pred","grocery store.png","croissantB.png",5,1
"30/07/2021 14:07:01","30/07/2021 10:07:01",56975,3,4382111,"60fead405d4fefc6731afbcc","Chrome 92.0.4515.107","encoding_b1",3,"SS7",14,1106.5,4,1,1,0,"motor_trial_mem","SS7",1,1,"pred","grocery store.png","mushroomsB.png",6,4
"30/07/2021 14:07:11","30/07/2021 10:07:11",56975,3,4382111,"60fead405d4fefc6731afbcc","Chrome 92.0.4515.107","encoding_b1",3,"SS7",18,2821.60000002384,3,1,1,0,"motor_trial_mem","SS7",1,2,"pred","grocery store.png","pieB.png",1,3
"30/07/2021 14:07:17","30/07/2021 10:07:16",56975,3,4382111,"60fead405d4fefc6731afbcc","Chrome 92.0.4515.107","encoding_b1",3,"SS7",20,1771.10000002384,2,1,1,0,"motor_trial_mem","SS7",1,2,"pred","grocery store.png","chocolatemilkB.png",2,2
"30/07/2021 14:07:22","30/07/2021 10:07:22",56975,3,4382111,"60fead405d4fefc6731afbcc","Chrome 92.0.4515.107","encoding_b1",3,"SS7",22,2098.40000003576,4,1,1,0,"motor_trial_mem","SS7",1,2,"pred","grocery store.png","lemonB.png",3,4
"30/07/2021 14:07:27","30/07/2021 10:07:26",56975,3,4382111,"60fead405d4fefc6731afbcc","Chrome 92.0.4515.107","encoding_b1",3,"SS7",24,861.700000047684,2,1,1,0,"motor_trial_mem","SS7",1,2,"pred","grocery store.png","appleB.png",4,2
"30/07/2021 14:07:33","30/07/2021 10:07:32",56975,3,4382111,"60fead405d4fefc6731afbcc","Chrome 92.0.4515.107","encoding_b1",3,"SS7",26,2386.60000002384,1,1,1,0,"motor_trial_mem","SS7",1,2,"pred","grocery store.png","broccoliB.png",5,1
"30/07/2021 14:07:37","30/07/2021 10:07:36",56975,3,4382111,"60fead405d4fefc6731afbcc","Chrome 92.0.4515.107","encoding_b1",3,"SS7",28,668.299999952316,4,1,1,0,"motor_trial_mem","SS7",1,2,"pred","grocery store.png","cakeB.png",6,4
"30/07/2021 14:07:47","30/07/2021 10:07:47",56975,3,4382111,"60fead405d4fefc6731afbcc","Chrome 92.0.4515.107","encoding_b1",3,"SS7",32,2554.80000001192,2,1,1,0,"motor_trial_cue","SS7",1,3,"rand","pet store.png","toucanB.png",1,2
"30/07/2021 14:07:51","30/07/2021 10:07:51",56975,3,4382111,"60fead405d4fefc6731afbcc","Chrome 92.0.4515.107","encoding_b1",3,"SS7",34,1180.5,3,1,1,0,"motor_trial_cue","SS7",1,3,"rand","pet store.png","iguanaB.png",2,3
"30/07/2021 14:07:56","30/07/2021 10:07:56",56975,3,4382111,"60fead405d4fefc6731afbcc","Chrome 92.0.4515.107","encoding_b1",3,"SS7",36,1211.30000001192,1,1,1,0,"motor_trial_cue","SS7",1,3,"rand","pet store.png","toadB.png",3,1
"30/07/2021 14:08:00","30/07/2021 10:08:00",56975,3,4382111,"60fead405d4fefc6731afbcc","Chrome 92.0.4515.107","encoding_b1",3,"SS7",38,590.699999988079,4,1,1,0,"motor_trial_cue","SS7",1,3,"rand","pet store.png","hammerheadsharkB.png",4,4
"30/07/2021 14:08:05","30/07/2021 10:08:05",56975,3,4382111,"60fead405d4fefc6731afbcc","Chrome 92.0.4515.107","encoding_b1",3,"SS7",40,1727.89999997616,1,1,1,0,"motor_trial_cue","SS7",1,3,"rand","pet store.png","ladybugB.png",5,1
"30/07/2021 14:08:10","30/07/2021 10:08:10",56975,3,4382111,"60fead405d4fefc6731afbcc","Chrome 92.0.4515.107","encoding_b1",3,"SS7",42,1088,3,1,1,0,"motor_trial_cue","SS7",1,3,"rand","pet store.png","gorillaB.png",6,3
"30/07/2021 14:08:19","30/07/2021 10:08:19",56975,3,4382111,"60fead405d4fefc6731afbcc","Chrome 92.0.4515.107","encoding_b1",3,"SS7",46,1367.10000002384,4,1,1,0,"motor_trial_cue","SS7",1,4,"rand","pet store.png","gooseB.png",1,4
"30/07/2021 14:08:23","30/07/2021 10:08:23",56975,3,4382111,"60fead405d4fefc6731afbcc","Chrome 92.0.4515.107","encoding_b1",3,"SS7",48,985.100000023842,2,1,1,0,"motor_trial_cue","SS7",1,4,"rand","pet store.png","killerwhaleB.png",2,2
"30/07/2021 14:08:28","30/07/2021 10:08:28",56975,3,4382111,"60fead405d4fefc6731afbcc","Chrome 92.0.4515.107","encoding_b1",3,"SS7",50,1088.09999996424,3,1,1,0,"motor_trial_cue","SS7",1,4,"rand","pet store.png","lionB.png",3,3
"30/07/2021 14:08:33","30/07/2021 10:08:32",56975,3,4382111,"60fead405d4fefc6731afbcc","Chrome 92.0.4515.107","encoding_b1",3,"SS7",52,1019.19999998808,1,1,1,0,"motor_trial_cue","SS7",1,4,"rand","pet store.png","sharkB.png",4,1
"30/07/2021 14:08:37","30/07/2021 10:08:37",56975,3,4382111,"60fead405d4fefc6731afbcc","Chrome 92.0.4515.107","encoding_b1",3,"SS7",54,922.099999964237,2,1,1,0,"motor_trial_cue","SS7",1,4,"rand","pet store.png","seahorseB.png",5,2
"30/07/2021 14:08:42","30/07/2021 10:08:41",56975,3,4382111,"60fead405d4fefc6731afbcc","Chrome 92.0.4515.107","encoding_b1",3,"SS7",56,1037.69999998808,1,1,1,0,"motor_trial_cue","SS7",1,4,"rand","pet store.png","dolphinB.png",6,1
"30/07/2021 14:10:54","30/07/2021 10:10:54",56975,3,4382111,"60fead405d4fefc6731afbcc","Chrome 92.0.4515.107","encoding_b2",2,"SS7",4,1325.20000004768,3,1,1,0,"motor_trial_mem","SS7",2,1,"pred","grocery store.png","clamsB.png",1,3
"30/07/2021 14:11:10","30/07/2021 10:11:10",56975,3,4382111,"60fead405d4fefc6731afbcc","Chrome 92.0.4515.107","encoding_b2",2,"SS7",8,3242.79999995232,4,1,1,0,"motor_trial_mem","SS7",2,1,"pred","grocery store.png","cupcakeB.png",3,4
"30/07/2021 14:11:17","30/07/2021 10:11:16",56975,3,4382111,"60fead405d4fefc6731afbcc","Chrome 92.0.4515.107","encoding_b2",2,"SS7",10,2717.69999998808,2,1,1,0,"motor_trial_mem","SS7",2,1,"pred","grocery store.png","dragonfruitB.png",4,2
"30/07/2021 14:11:21","30/07/2021 10:11:21",56975,3,4382111,"60fead405d4fefc6731afbcc","Chrome 92.0.4515.107","encoding_b2",2,"SS7",12,938.600000023842,1,1,1,0,"motor_trial_mem","SS7",2,1,"pred","grocery store.png","caramelappleB.png",5,1
"30/07/2021 14:11:26","30/07/2021 10:11:26",56975,3,4382111,"60fead405d4fefc6731afbcc","Chrome 92.0.4515.107","encoding_b2",2,"SS7",14,1502.20000004768,4,1,1,0,"motor_trial_mem","SS7",2,1,"pred","grocery store.png","milkB.png",6,4
"30/07/2021 14:11:35","30/07/2021 10:11:35",56975,3,4382111,"60fead405d4fefc6731afbcc","Chrome 92.0.4515.107","encoding_b2",2,"SS7",18,1071.80000001192,2,1,1,0,"motor_trial_cue","SS7",2,2,"rand","pet store.png","wolfB.png",1,2
"30/07/2021 14:11:39","30/07/2021 10:11:39",56975,3,4382111,"60fead405d4fefc6731afbcc","Chrome 92.0.4515.107","encoding_b2",2,"SS7",20,694.700000047684,3,1,1,0,"motor_trial_cue","SS7",2,2,"rand","pet store.png","rabbitB.png",2,3
"30/07/2021 14:11:43","30/07/2021 10:11:43",56975,3,4382111,"60fead405d4fefc6731afbcc","Chrome 92.0.4515.107","encoding_b2",2,"SS7",22,937.899999976158,1,1,1,0,"motor_trial_cue","SS7",2,2,"rand","pet store.png","pufferfishB.png",3,1
"30/07/2021 14:11:48","30/07/2021 10:11:47",56975,3,4382111,"60fead405d4fefc6731afbcc","Chrome 92.0.4515.107","encoding_b2",2,"SS7",24,734.900000035763,3,1,1,0,"motor_trial_cue","SS7",2,2,"rand","pet store.png","caterpillarB.png",4,3
"30/07/2021 14:11:52","30/07/2021 10:11:52",56975,3,4382111,"60fead405d4fefc6731afbcc","Chrome 92.0.4515.107","encoding_b2",2,"SS7",26,986.600000023842,4,1,1,0,"motor_trial_cue","SS7",2,2,"rand","pet store.png","bloodhoundB.png",5,4
"30/07/2021 14:11:56","30/07/2021 10:11:56",56975,3,4382111,"60fead405d4fefc6731afbcc","Chrome 92.0.4515.107","encoding_b2",2,"SS7",28,707.400000035763,1,1,1,0,"motor_trial_cue","SS7",2,2,"rand","pet store.png","mantisB.png",6,1
"30/07/2021 14:12:06","30/07/2021 10:12:06",56975,3,4382111,"60fead405d4fefc6731afbcc","Chrome 92.0.4515.107","encoding_b2",2,"SS7",32,2152.19999998808,3,1,1,0,"motor_trial_mem","SS7",2,3,"pred","grocery store.png","cookiesB.png",1,3
"30/07/2021 14:12:11","30/07/2021 10:12:11",56975,3,4382111,"60fead405d4fefc6731afbcc","Chrome 92.0.4515.107","encoding_b2",2,"SS7",34,1274.30000001192,2,1,1,0,"motor_trial_mem","SS7",2,3,"pred","grocery store.png","tacoB.png",2,2
"30/07/2021 14:12:17","30/07/2021 10:12:17",56975,3,4382111,"60fead405d4fefc6731afbcc","Chrome 92.0.4515.107","encoding_b2",2,"SS7",36,2481,4,1,1,0,"motor_trial_mem","SS7",2,3,"pred","grocery store.png","pretzelB.png",3,4
"30/07/2021 14:12:21","30/07/2021 10:12:21",56975,3,4382111,"60fead405d4fefc6731afbcc","Chrome 92.0.4515.107","encoding_b2",2,"SS7",38,1075.19999998808,2,1,1,0,"motor_trial_mem","SS7",2,3,"pred","grocery store.png","cerealB.png",4,2
"30/07/2021 14:12:25","30/07/2021 10:12:25",56975,3,4382111,"60fead405d4fefc6731afbcc","Chrome 92.0.4515.107","encoding_b2",2,"SS7",40,318.899999976158,1,1,1,0,"motor_trial_mem","SS7",2,3,"pred","grocery store.png","seaweedB.png",5,1
"30/07/2021 14:12:29","30/07/2021 10:12:29",56975,3,4382111,"60fead405d4fefc6731afbcc","Chrome 92.0.4515.107","encoding_b2",2,"SS7",42,598,4,1,1,0,"motor_trial_mem","SS7",2,3,"pred","grocery store.png","dumplingsB.png",6,4
"30/07/2021 14:12:38","30/07/2021 10:12:38",56975,3,4382111,"60fead405d4fefc6731afbcc","Chrome 92.0.4515.107","encoding_b2",2,"SS7",46,1505.10000002384,2,1,1,0,"motor_trial_cue","SS7",2,4,"rand","pet store.png","deerB.png",1,2
"30/07/2021 14:12:43","30/07/2021 10:12:43",56975,3,4382111,"60fead405d4fefc6731afbcc","Chrome 92.0.4515.107","encoding_b2",2,"SS7",48,1151.10000002384,1,1,1,0,"motor_trial_cue","SS7",2,4,"rand","pet store.png","pantherB.png",2,1
"30/07/2021 14:12:48","30/07/2021 10:12:47",56975,3,4382111,"60fead405d4fefc6731afbcc","Chrome 92.0.4515.107","encoding_b2",2,"SS7",50,1196.5,4,1,1,0,"motor_trial_cue","SS7",2,4,"rand","pet store.png","hermitcrabB.png",3,4
"30/07/2021 14:12:52","30/07/2021 10:12:52",56975,3,4382111,"60fead405d4fefc6731afbcc","Chrome 92.0.4515.107","encoding_b2",2,"SS7",52,1038.80000001192,3,1,1,0,"motor_trial_cue","SS7",2,4,"rand","pet store.png","penguinB.png",4,3
"30/07/2021 14:12:57","30/07/2021 10:12:57",56975,3,4382111,"60fead405d4fefc6731afbcc","Chrome 92.0.4515.107","encoding_b2",2,"SS7",54,957,4,1,1,0,"motor_trial_cue","SS7",2,4,"rand","pet store.png","donkeyB.png",5,4
"30/07/2021 14:13:01","30/07/2021 10:13:01",56975,3,4382111,"60fead405d4fefc6731afbcc","Chrome 92.0.4515.107","encoding_b2",2,"SS7",56,943.400000035763,1,1,1,0,"motor_trial_cue","SS7",2,4,"rand","pet store.png","lemurB.png",6,1
"30/07/2021 14:14:29","30/07/2021 10:14:29",56975,3,4382111,"60fead405d4fefc6731afbcc","Chrome 92.0.4515.107","encoding_b3",2,"SS7",4,1091.60000002384,4,1,1,0,"motor_trial_cue","SS7",3,1,"rand","pet store.png","ferretB.png",1,4
"30/07/2021 14:14:34","30/07/2021 10:14:34",56975,3,4382111,"60fead405d4fefc6731afbcc","Chrome 92.0.4515.107","encoding_b3",2,"SS7",6,1166.19999998808,2,1,1,0,"motor_trial_cue","SS7",3,1,"rand","pet store.png","chimpB.png",2,2
"30/07/2021 14:14:38","30/07/2021 10:14:38",56975,3,4382111,"60fead405d4fefc6731afbcc","Chrome 92.0.4515.107","encoding_b3",2,"SS7",8,856.399999976158,3,1,1,0,"motor_trial_cue","SS7",3,1,"rand","pet store.png","rhinoB.png",3,3
"30/07/2021 14:14:43","30/07/2021 10:14:43",56975,3,4382111,"60fead405d4fefc6731afbcc","Chrome 92.0.4515.107","encoding_b3",2,"SS7",10,1221.90000003576,1,1,1,0,"motor_trial_cue","SS7",3,1,"rand","pet store.png","badgerB.png",4,1
"30/07/2021 14:14:47","30/07/2021 10:14:47",56975,3,4382111,"60fead405d4fefc6731afbcc","Chrome 92.0.4515.107","encoding_b3",2,"SS7",12,890.599999964237,3,1,1,0,"motor_trial_cue","SS7",3,1,"rand","pet store.png","octopusB.png",5,3
"30/07/2021 14:14:51","30/07/2021 10:14:51",56975,3,4382111,"60fead405d4fefc6731afbcc","Chrome 92.0.4515.107","encoding_b3",2,"SS7",14,724.699999988079,2,1,1,0,"motor_trial_cue","SS7",3,1,"rand","pet store.png","whaleB.png",6,2
"30/07/2021 14:15:01","30/07/2021 10:15:01",56975,3,4382111,"60fead405d4fefc6731afbcc","Chrome 92.0.4515.107","encoding_b3",2,"SS7",18,2020.69999998808,3,1,1,0,"motor_trial_mem","SS7",3,2,"pred","grocery store.png","kiwiB.png",1,3
"30/07/2021 14:15:05","30/07/2021 10:15:05",56975,3,4382111,"60fead405d4fefc6731afbcc","Chrome 92.0.4515.107","encoding_b3",2,"SS7",20,493.899999976158,2,1,1,0,"motor_trial_mem","SS7",3,2,"pred","grocery store.png","ramenB.png",2,2
"30/07/2021 14:15:10","30/07/2021 10:15:09",56975,3,4382111,"60fead405d4fefc6731afbcc","Chrome 92.0.4515.107","encoding_b3",2,"SS7",22,1043.39999997616,4,1,1,0,"motor_trial_mem","SS7",3,2,"pred","grocery store.png","mustardB.png",3,4
"30/07/2021 14:15:14","30/07/2021 10:15:14",56975,3,4382111,"60fead405d4fefc6731afbcc","Chrome 92.0.4515.107","encoding_b3",2,"SS7",24,863.600000023842,2,1,1,0,"motor_trial_mem","SS7",3,2,"pred","grocery store.png","avocadoB.png",4,2
"30/07/2021 14:15:18","30/07/2021 10:15:18",56975,3,4382111,"60fead405d4fefc6731afbcc","Chrome 92.0.4515.107","encoding_b3",2,"SS7",26,497.5,1,1,1,0,"motor_trial_mem","SS7",3,2,"pred","grocery store.png","baconB.png",5,1
"30/07/2021 14:15:22","30/07/2021 10:15:22",56975,3,4382111,"60fead405d4fefc6731afbcc","Chrome 92.0.4515.107","encoding_b3",2,"SS7",28,620.300000011921,4,1,1,0,"motor_trial_mem","SS7",3,2,"pred","grocery store.png","blackpepperB.png",6,4
"30/07/2021 14:15:31","30/07/2021 10:15:31",56975,3,4382111,"60fead405d4fefc6731afbcc","Chrome 92.0.4515.107","encoding_b3",2,"SS7",32,1515.90000003576,2,1,1,0,"motor_trial_cue","SS7",3,3,"rand","pet store.png","ratB.png",1,2
"30/07/2021 14:15:36","30/07/2021 10:15:36",56975,3,4382111,"60fead405d4fefc6731afbcc","Chrome 92.0.4515.107","encoding_b3",2,"SS7",34,1173.80000001192,1,1,1,0,"motor_trial_cue","SS7",3,3,"rand","pet store.png","llamaB.png",2,1
"30/07/2021 14:15:40","30/07/2021 10:15:40",56975,3,4382111,"60fead405d4fefc6731afbcc","Chrome 92.0.4515.107","encoding_b3",2,"SS7",36,1167.5,3,1,1,0,"motor_trial_cue","SS7",3,3,"rand","pet store.png","boarB.png",3,3
"30/07/2021 14:15:45","30/07/2021 10:15:45",56975,3,4382111,"60fead405d4fefc6731afbcc","Chrome 92.0.4515.107","encoding_b3",2,"SS7",38,926.399999976158,1,1,1,0,"motor_trial_cue","SS7",3,3,"rand","pet store.png","cuttlefishB.png",4,1
"30/07/2021 14:15:49","30/07/2021 10:15:49",56975,3,4382111,"60fead405d4fefc6731afbcc","Chrome 92.0.4515.107","encoding_b3",2,"SS7",40,491.399999976158,4,1,1,0,"motor_trial_cue","SS7",3,3,"rand","pet store.png","giraffeB.png",5,4
"30/07/2021 14:15:54","30/07/2021 10:15:54",56975,3,4382111,"60fead405d4fefc6731afbcc","Chrome 92.0.4515.107","encoding_b3",2,"SS7",42,1291.30000001192,3,1,1,0,"motor_trial_cue","SS7",3,3,"rand","pet store.png","batB.png",6,3
"30/07/2021 14:16:02","30/07/2021 10:16:02",56975,3,4382111,"60fead405d4fefc6731afbcc","Chrome 92.0.4515.107","encoding_b3",2,"SS7",46,1269.59999996424,3,1,1,0,"motor_trial_mem","SS7",3,4,"pred","grocery store.png","butterB.png",1,3
"30/07/2021 14:16:06","30/07/2021 10:16:06",56975,3,4382111,"60fead405d4fefc6731afbcc","Chrome 92.0.4515.107","encoding_b3",2,"SS7",48,62.5,2,1,1,0,"motor_trial_mem","SS7",3,4,"pred","grocery store.png","waffleB.png",2,2
"30/07/2021 14:16:10","30/07/2021 10:16:09",56975,3,4382111,"60fead405d4fefc6731afbcc","Chrome 92.0.4515.107","encoding_b3",2,"SS7",50,17.1999999880791,4,1,1,0,"motor_trial_mem","SS7",3,4,"pred","grocery store.png","popcornshrimpB.png",3,4
"30/07/2021 14:16:14","30/07/2021 10:16:14",56975,3,4382111,"60fead405d4fefc6731afbcc","Chrome 92.0.4515.107","encoding_b3",2,"SS7",52,1321.60000002384,2,1,1,0,"motor_trial_mem","SS7",3,4,"pred","grocery store.png","sandwichB.png",4,2
"30/07/2021 14:16:18","30/07/2021 10:16:18",56975,3,4382111,"60fead405d4fefc6731afbcc","Chrome 92.0.4515.107","encoding_b3",2,"SS7",54,4.19999998807907,1,1,1,0,"motor_trial_mem","SS7",3,4,"pred","grocery store.png","cornB.png",5,1
"30/07/2021 14:16:22","30/07/2021 10:16:21",56975,3,4382111,"60fead405d4fefc6731afbcc","Chrome 92.0.4515.107","encoding_b3",2,"SS7",56,98.1999999880791,4,1,1,0,"motor_trial_mem","SS7",3,4,"pred","grocery store.png","celeryB.png",6,4
"30/07/2021 14:18:03","30/07/2021 10:18:03",56975,3,4382111,"60fead405d4fefc6731afbcc","Chrome 92.0.4515.107","encoding_b4",2,"SS7",4,1172.30000001192,4,1,1,0,"motor_trial_cue","SS7",4,1,"rand","pet store.png","hippoB.png",1,4
"30/07/2021 14:18:08","30/07/2021 10:18:07",56975,3,4382111,"60fead405d4fefc6731afbcc","Chrome 92.0.4515.107","encoding_b4",2,"SS7",6,969,3,1,1,0,"motor_trial_cue","SS7",4,1,"rand","pet store.png","crocodileB.png",2,3
"30/07/2021 14:18:12","30/07/2021 10:18:12",56975,3,4382111,"60fead405d4fefc6731afbcc","Chrome 92.0.4515.107","encoding_b4",2,"SS7",8,851.100000023842,1,1,1,0,"motor_trial_cue","SS7",4,1,"rand","pet store.png","cowB.png",3,1
"30/07/2021 14:18:16","30/07/2021 10:18:16",56975,3,4382111,"60fead405d4fefc6731afbcc","Chrome 92.0.4515.107","encoding_b4",2,"SS7",10,444,2,1,1,0,"motor_trial_cue","SS7",4,1,"rand","pet store.png","bearB.png",4,2
"30/07/2021 14:18:20","30/07/2021 10:18:20",56975,3,4382111,"60fead405d4fefc6731afbcc","Chrome 92.0.4515.107","encoding_b4",2,"SS7",12,819.399999976158,1,1,1,0,"motor_trial_cue","SS7",4,1,"rand","pet store.png","eagleB.png",5,1
"30/07/2021 14:18:25","30/07/2021 10:18:25",56975,3,4382111,"60fead405d4fefc6731afbcc","Chrome 92.0.4515.107","encoding_b4",2,"SS7",14,877.5,3,1,1,0,"motor_trial_cue","SS7",4,1,"rand","pet store.png","ostrichB.png",6,3
"30/07/2021 14:18:33","30/07/2021 10:18:33",56975,3,4382111,"60fead405d4fefc6731afbcc","Chrome 92.0.4515.107","encoding_b4",2,"SS7",18,912,1,1,1,0,"motor_trial_cue","SS7",4,2,"rand","pet store.png","vultureB.png",1,1
"30/07/2021 14:18:37","30/07/2021 10:18:37",56975,3,4382111,"60fead405d4fefc6731afbcc","Chrome 92.0.4515.107","encoding_b4",2,"SS7",20,818.200000047684,3,1,1,0,"motor_trial_cue","SS7",4,2,"rand","pet store.png","mooseB.png",2,3
"30/07/2021 14:18:42","30/07/2021 10:18:41",56975,3,4382111,"60fead405d4fefc6731afbcc","Chrome 92.0.4515.107","encoding_b4",2,"SS7",22,567.199999988079,2,1,1,0,"motor_trial_cue","SS7",4,2,"rand","pet store.png","bettafishB.png",3,2
"30/07/2021 14:18:46","30/07/2021 10:18:46",56975,3,4382111,"60fead405d4fefc6731afbcc","Chrome 92.0.4515.107","encoding_b4",2,"SS7",24,1024.10000002384,4,1,1,0,"motor_trial_cue","SS7",4,2,"rand","pet store.png","catB.png",4,4
"30/07/2021 14:18:50","30/07/2021 10:18:50",56975,3,4382111,"60fead405d4fefc6731afbcc","Chrome 92.0.4515.107","encoding_b4",2,"SS7",26,461.100000023842,2,1,1,0,"motor_trial_cue","SS7",4,2,"rand","pet store.png","armadilloB.png",5,2
"30/07/2021 14:18:54","30/07/2021 10:18:54",56975,3,4382111,"60fead405d4fefc6731afbcc","Chrome 92.0.4515.107","encoding_b4",2,"SS7",28,426.400000035763,3,1,1,0,"motor_trial_cue","SS7",4,2,"rand","pet store.png","redpandaB.png",6,3
"30/07/2021 14:19:02","30/07/2021 10:19:02",56975,3,4382111,"60fead405d4fefc6731afbcc","Chrome 92.0.4515.107","encoding_b4",2,"SS7",32,901.599999964237,3,1,1,0,"motor_trial_mem","SS7",4,3,"pred","grocery store.png","nachosB.png",1,3
"30/07/2021 14:19:06","30/07/2021 10:19:06",56975,3,4382111,"60fead405d4fefc6731afbcc","Chrome 92.0.4515.107","encoding_b4",2,"SS7",34,417.299999952316,2,1,1,0,"motor_trial_mem","SS7",4,3,"pred","grocery store.png","peachesB.png",2,2
"30/07/2021 14:19:11","30/07/2021 10:19:11",56975,3,4382111,"60fead405d4fefc6731afbcc","Chrome 92.0.4515.107","encoding_b4",2,"SS7",36,1179.5,4,1,1,0,"motor_trial_mem","SS7",4,3,"pred","grocery store.png","cherriesB.png",3,4
"30/07/2021 14:19:16","30/07/2021 10:19:16",56975,3,4382111,"60fead405d4fefc6731afbcc","Chrome 92.0.4515.107","encoding_b4",2,"SS7",38,1159.80000001192,2,1,1,0,"motor_trial_mem","SS7",4,3,"pred","grocery store.png","potatochipsB.png",4,2
"30/07/2021 14:19:22","30/07/2021 10:19:22",56975,3,4382111,"60fead405d4fefc6731afbcc","Chrome 92.0.4515.107","encoding_b4",2,"SS7",40,2717.09999996424,1,1,1,0,"motor_trial_mem","SS7",4,3,"pred","grocery store.png","donutB.png",5,1
"30/07/2021 14:19:26","30/07/2021 10:19:26",56975,3,4382111,"60fead405d4fefc6731afbcc","Chrome 92.0.4515.107","encoding_b4",2,"SS7",42,643.399999976158,4,1,1,0,"motor_trial_mem","SS7",4,3,"pred","grocery store.png","onionB.png",6,4
"30/07/2021 14:19:36","30/07/2021 10:19:36",56975,3,4382111,"60fead405d4fefc6731afbcc","Chrome 92.0.4515.107","encoding_b4",2,"SS7",46,2472.19999998808,3,1,1,0,"motor_trial_mem","SS7",4,4,"pred","grocery store.png","porkB.png",1,3
"30/07/2021 14:19:40","30/07/2021 10:19:40",56975,3,4382111,"60fead405d4fefc6731afbcc","Chrome 92.0.4515.107","encoding_b4",2,"SS7",48,433.399999976158,2,1,1,0,"motor_trial_mem","SS7",4,4,"pred","grocery store.png","bakedpotatoB.png",2,2
"30/07/2021 14:19:45","30/07/2021 10:19:45",56975,3,4382111,"60fead405d4fefc6731afbcc","Chrome 92.0.4515.107","encoding_b4",2,"SS7",50,1408,4,1,1,0,"motor_trial_mem","SS7",4,4,"pred","grocery store.png","watermelonB.png",3,4
"30/07/2021 14:19:50","30/07/2021 10:19:50",56975,3,4382111,"60fead405d4fefc6731afbcc","Chrome 92.0.4515.107","encoding_b4",2,"SS7",52,1684.19999998808,1,1,0,0,"motor_trial_mem","SS7",4,4,"pred","grocery store.png","bagelB.png",4,2
"30/07/2021 14:19:55","30/07/2021 10:19:55",56975,3,4382111,"60fead405d4fefc6731afbcc","Chrome 92.0.4515.107","encoding_b4",2,"SS7",54,1263.19999998808,1,1,1,0,"motor_trial_mem","SS7",4,4,"pred","grocery store.png","gummybearsB.png",5,1
"30/07/2021 14:20:00","30/07/2021 10:20:00",56975,3,4382111,"60fead405d4fefc6731afbcc","Chrome 92.0.4515.107","encoding_b4",2,"SS7",56,1567.10000002384,4,1,1,0,"motor_trial_mem","SS7",4,4,"pred","grocery store.png","raspberriesB.png",6,4
"30/07/2021 14:22:44","30/07/2021 10:22:44",56975,3,4382111,"60fead405d4fefc6731afbcc","Chrome 92.0.4515.107","encoding_b5",2,"SS7",4,1363.30000001192,2,1,1,0,"motor_trial_cue","SS7",5,1,"rand","pet store.png","frogB.png",1,2
"30/07/2021 14:22:49","30/07/2021 10:22:48",56975,3,4382111,"60fead405d4fefc6731afbcc","Chrome 92.0.4515.107","encoding_b5",2,"SS7",6,820.5,4,1,1,0,"motor_trial_cue","SS7",5,1,"rand","pet store.png","walrusB.png",2,4
"30/07/2021 14:22:54","30/07/2021 10:22:53",56975,3,4382111,"60fead405d4fefc6731afbcc","Chrome 92.0.4515.107","encoding_b5",2,"SS7",8,1426.5,3,1,1,0,"motor_trial_cue","SS7",5,1,"rand","pet store.png","pelicanB.png",3,3
"30/07/2021 14:23:01","30/07/2021 10:23:01",56975,3,4382111,"60fead405d4fefc6731afbcc","Chrome 92.0.4515.107","encoding_b5",2,"SS7",10,4364.80000001192,4,1,1,0,"motor_trial_cue","SS7",5,1,"rand","pet store.png","canadiangooseB.png",4,4
"30/07/2021 14:23:06","30/07/2021 10:23:06",56975,3,4382111,"60fead405d4fefc6731afbcc","Chrome 92.0.4515.107","encoding_b5",2,"SS7",12,1234.59999996424,1,1,1,0,"motor_trial_cue","SS7",5,1,"rand","pet store.png","stingrayB.png",5,1
"30/07/2021 14:23:11","30/07/2021 10:23:11",56975,3,4382111,"60fead405d4fefc6731afbcc","Chrome 92.0.4515.107","encoding_b5",2,"SS7",14,1369.69999998808,3,1,1,0,"motor_trial_cue","SS7",5,1,"rand","pet store.png","cheetahB.png",6,3
"30/07/2021 14:23:20","30/07/2021 10:23:20",56975,3,4382111,"60fead405d4fefc6731afbcc","Chrome 92.0.4515.107","encoding_b5",2,"SS7",18,1756.40000003576,3,1,1,0,"motor_trial_mem","SS7",5,2,"pred","grocery store.png","eggB.png",1,3
"30/07/2021 14:23:26","30/07/2021 10:23:25",56975,3,4382111,"60fead405d4fefc6731afbcc","Chrome 92.0.4515.107","encoding_b5",2,"SS7",20,1745.10000002384,2,1,1,0,"motor_trial_mem","SS7",5,2,"pred","grocery store.png","pomegranateB.png",2,2
"30/07/2021 14:23:30","30/07/2021 10:23:30",56975,3,4382111,"60fead405d4fefc6731afbcc","Chrome 92.0.4515.107","encoding_b5",2,"SS7",22,811.800000011921,4,1,1,0,"motor_trial_mem","SS7",5,2,"pred","grocery store.png","burgerB.png",3,4
"30/07/2021 14:23:35","30/07/2021 10:23:35",56975,3,4382111,"60fead405d4fefc6731afbcc","Chrome 92.0.4515.107","encoding_b5",2,"SS7",24,1607.30000001192,2,1,1,0,"motor_trial_mem","SS7",5,2,"pred","grocery store.png","guavaB.png",4,2
"30/07/2021 14:23:39","30/07/2021 10:23:39",56975,3,4382111,"60fead405d4fefc6731afbcc","Chrome 92.0.4515.107","encoding_b5",2,"SS7",26,667,1,1,1,0,"motor_trial_mem","SS7",5,2,"pred","grocery store.png","strawberriesB.png",5,1
"30/07/2021 14:23:43","30/07/2021 10:23:43",56975,3,4382111,"60fead405d4fefc6731afbcc","Chrome 92.0.4515.107","encoding_b5",2,"SS7",28,450.099999964237,4,1,1,0,"motor_trial_mem","SS7",5,2,"pred","grocery store.png","cookedchickenB.png",6,4
"30/07/2021 14:23:53","30/07/2021 10:23:52",56975,3,4382111,"60fead405d4fefc6731afbcc","Chrome 92.0.4515.107","encoding_b5",2,"SS7",32,1847.29999995232,4,1,1,0,"motor_trial_cue","SS7",5,3,"rand","pet store.png","koalaB.png",1,4
"30/07/2021 14:23:57","30/07/2021 10:23:57",56975,3,4382111,"60fead405d4fefc6731afbcc","Chrome 92.0.4515.107","encoding_b5",2,"SS7",34,1153.19999998808,2,1,1,0,"motor_trial_cue","SS7",5,3,"rand","pet store.png","dragonflyB.png",2,2
"30/07/2021 14:24:02","30/07/2021 10:24:02",56975,3,4382111,"60fead405d4fefc6731afbcc","Chrome 92.0.4515.107","encoding_b5",2,"SS7",36,1125.39999997616,1,1,1,0,"motor_trial_cue","SS7",5,3,"rand","pet store.png","squidB.png",3,1
"30/07/2021 14:24:06","30/07/2021 10:24:06",56975,3,4382111,"60fead405d4fefc6731afbcc","Chrome 92.0.4515.107","encoding_b5",2,"SS7",38,812.699999988079,3,1,1,0,"motor_trial_cue","SS7",5,3,"rand","pet store.png","polarbearB.png",4,3
"30/07/2021 14:24:11","30/07/2021 10:24:11",56975,3,4382111,"60fead405d4fefc6731afbcc","Chrome 92.0.4515.107","encoding_b5",2,"SS7",40,1001.39999997616,2,1,1,0,"motor_trial_cue","SS7",5,3,"rand","pet store.png","chickenB.png",5,2
"30/07/2021 14:24:15","30/07/2021 10:24:15",56975,3,4382111,"60fead405d4fefc6731afbcc","Chrome 92.0.4515.107","encoding_b5",2,"SS7",42,851.899999976158,3,1,1,0,"motor_trial_cue","SS7",5,3,"rand","pet store.png","snailB.png",6,3
"30/07/2021 14:24:25","30/07/2021 10:24:25",56975,3,4382111,"60fead405d4fefc6731afbcc","Chrome 92.0.4515.107","encoding_b5",2,"SS7",46,2321,3,1,1,0,"motor_trial_mem","SS7",5,4,"pred","grocery store.png","tomatoB.png",1,3
"30/07/2021 14:24:29","30/07/2021 10:24:29",56975,3,4382111,"60fead405d4fefc6731afbcc","Chrome 92.0.4515.107","encoding_b5",2,"SS7",48,330.200000047684,2,1,1,0,"motor_trial_mem","SS7",5,4,"pred","grocery store.png","cabbageB.png",2,2
"30/07/2021 14:24:33","30/07/2021 10:24:33",56975,3,4382111,"60fead405d4fefc6731afbcc","Chrome 92.0.4515.107","encoding_b5",2,"SS7",50,926.300000011921,4,1,1,0,"motor_trial_mem","SS7",5,4,"pred","grocery store.png","cheeseB.png",3,4
"30/07/2021 14:24:40","30/07/2021 10:24:40",56975,3,4382111,"60fead405d4fefc6731afbcc","Chrome 92.0.4515.107","encoding_b5",2,"SS7",52,3293.30000001192,2,1,1,0,"motor_trial_mem","SS7",5,4,"pred","grocery store.png","lycheeB.png",4,2
"30/07/2021 14:24:44","30/07/2021 10:24:44",56975,3,4382111,"60fead405d4fefc6731afbcc","Chrome 92.0.4515.107","encoding_b5",2,"SS7",54,665.400000035763,1,1,1,0,"motor_trial_mem","SS7",5,4,"pred","grocery store.png","peanutbutterB.png",5,1
"30/07/2021 14:24:48","30/07/2021 10:24:48",56975,3,4382111,"60fead405d4fefc6731afbcc","Chrome 92.0.4515.107","encoding_b5",2,"SS7",56,857.399999976158,4,1,1,0,"motor_trial_mem","SS7",5,4,"pred","grocery store.png","muffinB.png",6,4
"30/07/2021 14:27:21","30/07/2021 10:27:21",56975,3,4382111,"60fead405d4fefc6731afbcc","Chrome 92.0.4515.107","encoding_b6",2,"SS7",4,990.700000047684,3,1,1,0,"motor_trial_mem","SS7",6,1,"pred","grocery store.png","orangeB.png",1,3
"30/07/2021 14:27:26","30/07/2021 10:27:26",56975,3,4382111,"60fead405d4fefc6731afbcc","Chrome 92.0.4515.107","encoding_b6",2,"SS7",6,1336.19999998808,2,1,1,0,"motor_trial_mem","SS7",6,1,"pred","grocery store.png","riceB.png",2,2
"30/07/2021 14:27:30","30/07/2021 10:27:30",56975,3,4382111,"60fead405d4fefc6731afbcc","Chrome 92.0.4515.107","encoding_b6",2,"SS7",8,829.800000011921,4,1,1,0,"motor_trial_mem","SS7",6,1,"pred","grocery store.png","ravioliB.png",3,4
"30/07/2021 14:27:35","30/07/2021 10:27:35",56975,3,4382111,"60fead405d4fefc6731afbcc","Chrome 92.0.4515.107","encoding_b6",2,"SS7",10,999.5,2,1,1,0,"motor_trial_mem","SS7",6,1,"pred","grocery store.png","burritoB.png",4,2
"30/07/2021 14:27:39","30/07/2021 10:27:39",56975,3,4382111,"60fead405d4fefc6731afbcc","Chrome 92.0.4515.107","encoding_b6",2,"SS7",12,606.300000011921,1,1,1,0,"motor_trial_mem","SS7",6,1,"pred","grocery store.png","artichokeB.png",5,1
"30/07/2021 14:27:44","30/07/2021 10:27:43",56975,3,4382111,"60fead405d4fefc6731afbcc","Chrome 92.0.4515.107","encoding_b6",2,"SS7",14,1273,4,1,1,0,"motor_trial_mem","SS7",6,1,"pred","grocery store.png","acornsquashB.png",6,4
"30/07/2021 14:27:52","30/07/2021 10:27:52",56975,3,4382111,"60fead405d4fefc6731afbcc","Chrome 92.0.4515.107","encoding_b6",2,"SS7",18,1033.5,2,1,1,0,"motor_trial_cue","SS7",6,2,"rand","pet store.png","squirrelB.png",1,2
"30/07/2021 14:27:56","30/07/2021 10:27:56",56975,3,4382111,"60fead405d4fefc6731afbcc","Chrome 92.0.4515.107","encoding_b6",2,"SS7",20,655.300000011921,4,1,1,0,"motor_trial_cue","SS7",6,2,"rand","pet store.png","foxB.png",2,4
"30/07/2021 14:28:00","30/07/2021 10:28:00",56975,3,4382111,"60fead405d4fefc6731afbcc","Chrome 92.0.4515.107","encoding_b6",2,"SS7",22,668.699999988079,3,1,1,0,"motor_trial_cue","SS7",6,2,"rand","pet store.png","bisonB.png",3,3
"30/07/2021 14:28:05","30/07/2021 10:28:04",56975,3,4382111,"60fead405d4fefc6731afbcc","Chrome 92.0.4515.107","encoding_b6",2,"SS7",24,566.900000035763,1,1,1,0,"motor_trial_cue","SS7",6,2,"rand","pet store.png","tortoiseB.png",4,1
"30/07/2021 14:28:08","30/07/2021 10:28:08",56975,3,4382111,"60fead405d4fefc6731afbcc","Chrome 92.0.4515.107","encoding_b6",2,"SS7",26,382.900000035763,4,1,1,0,"motor_trial_cue","SS7",6,2,"rand","pet store.png","beetleB.png",5,4
"30/07/2021 14:28:13","30/07/2021 10:28:12",56975,3,4382111,"60fead405d4fefc6731afbcc","Chrome 92.0.4515.107","encoding_b6",2,"SS7",28,571.900000035763,1,1,1,0,"motor_trial_cue","SS7",6,2,"rand","pet store.png","pigB.png",6,1
"30/07/2021 14:28:21","30/07/2021 10:28:21",56975,3,4382111,"60fead405d4fefc6731afbcc","Chrome 92.0.4515.107","encoding_b6",2,"SS7",32,1036.59999996424,3,1,1,0,"motor_trial_mem","SS7",6,3,"pred","grocery store.png","fortunecookieB.png",1,3
"30/07/2021 14:28:26","30/07/2021 10:28:26",56975,3,4382111,"60fead405d4fefc6731afbcc","Chrome 92.0.4515.107","encoding_b6",2,"SS7",34,1854.60000002384,2,1,1,0,"motor_trial_mem","SS7",6,3,"pred","grocery store.png","granolaB.png",2,2
"30/07/2021 14:28:31","30/07/2021 10:28:30",56975,3,4382111,"60fead405d4fefc6731afbcc","Chrome 92.0.4515.107","encoding_b6",2,"SS7",36,623.600000023842,4,1,1,0,"motor_trial_mem","SS7",6,3,"pred","grocery store.png","pizzaB.png",3,4
"30/07/2021 14:28:36","30/07/2021 10:28:36",56975,3,4382111,"60fead405d4fefc6731afbcc","Chrome 92.0.4515.107","encoding_b6",2,"SS7",38,1785.19999998808,1,1,0,0,"motor_trial_mem","SS7",6,3,"pred","grocery store.png","cantaloupeB.png",4,2
"30/07/2021 14:28:41","30/07/2021 10:28:40",56975,3,4382111,"60fead405d4fefc6731afbcc","Chrome 92.0.4515.107","encoding_b6",2,"SS7",40,1183.5,1,1,1,0,"motor_trial_mem","SS7",6,3,"pred","grocery store.png","pineappleB.png",5,1
"30/07/2021 14:28:45","30/07/2021 10:28:45",56975,3,4382111,"60fead405d4fefc6731afbcc","Chrome 92.0.4515.107","encoding_b6",2,"SS7",42,1367.59999996424,4,1,1,0,"motor_trial_mem","SS7",6,3,"pred","grocery store.png","starfruitB.png",6,4
"30/07/2021 14:28:55","30/07/2021 10:28:54",56975,3,4382111,"60fead405d4fefc6731afbcc","Chrome 92.0.4515.107","encoding_b6",2,"SS7",46,1580.10000002384,2,1,1,0,"motor_trial_cue","SS7",6,4,"rand","pet store.png","kangarooB.png",1,2
"30/07/2021 14:28:59","30/07/2021 10:28:59",56975,3,4382111,"60fead405d4fefc6731afbcc","Chrome 92.0.4515.107","encoding_b6",2,"SS7",48,1193.30000001192,1,1,1,0,"motor_trial_cue","SS7",6,4,"rand","pet store.png","tigerB.png",2,1
"30/07/2021 14:29:04","30/07/2021 10:29:04",56975,3,4382111,"60fead405d4fefc6731afbcc","Chrome 92.0.4515.107","encoding_b6",2,"SS7",50,1109,3,1,1,0,"motor_trial_cue","SS7",6,4,"rand","pet store.png","pandaB.png",3,3
"30/07/2021 14:29:08","30/07/2021 10:29:08",56975,3,4382111,"60fead405d4fefc6731afbcc","Chrome 92.0.4515.107","encoding_b6",2,"SS7",52,1042.69999998808,4,1,1,0,"motor_trial_cue","SS7",6,4,"rand","pet store.png","horseB.png",4,4
"30/07/2021 14:29:13","30/07/2021 10:29:13",56975,3,4382111,"60fead405d4fefc6731afbcc","Chrome 92.0.4515.107","encoding_b6",2,"SS7",54,894.899999976158,1,1,1,0,"motor_trial_cue","SS7",6,4,"rand","pet store.png","platypusB.png",5,1
"30/07/2021 14:29:17","30/07/2021 10:29:17",56975,3,4382111,"60fead405d4fefc6731afbcc","Chrome 92.0.4515.107","encoding_b6",2,"SS7",56,820.5,4,1,1,0,"motor_trial_cue","SS7",6,4,"rand","pet store.png","manateeB.png",6,4
"30/07/2021 14:30:49","30/07/2021 10:30:49",56975,3,4382111,"60fead405d4fefc6731afbcc","Chrome 92.0.4515.107","encoding_b7",2,"SS7",4,1025.69999998808,2,1,1,0,"motor_trial_cue","SS7",7,1,"rand","pet store.png","turkeyB.png",1,2
"30/07/2021 14:30:54","30/07/2021 10:30:54",56975,3,4382111,"60fead405d4fefc6731afbcc","Chrome 92.0.4515.107","encoding_b7",2,"SS7",6,1000.30000001192,1,1,1,0,"motor_trial_cue","SS7",7,1,"rand","pet store.png","hummingbirdB.png",2,1
"30/07/2021 14:30:59","30/07/2021 10:30:58",56975,3,4382111,"60fead405d4fefc6731afbcc","Chrome 92.0.4515.107","encoding_b7",2,"SS7",8,1180.60000002384,4,1,1,0,"motor_trial_cue","SS7",7,1,"rand","pet store.png","goatB.png",3,4
"30/07/2021 14:31:04","30/07/2021 10:31:04",56975,3,4382111,"60fead405d4fefc6731afbcc","Chrome 92.0.4515.107","encoding_b7",2,"SS7",10,2190,3,1,1,0,"motor_trial_cue","SS7",7,1,"rand","pet store.png","crowB.png",4,3
"30/07/2021 14:31:09","30/07/2021 10:31:08",56975,3,4382111,"60fead405d4fefc6731afbcc","Chrome 92.0.4515.107","encoding_b7",2,"SS7",12,780.800000011921,1,1,1,0,"motor_trial_cue","SS7",7,1,"rand","pet store.png","grasshopperB.png",5,1
"30/07/2021 14:31:13","30/07/2021 10:31:13",56975,3,4382111,"60fead405d4fefc6731afbcc","Chrome 92.0.4515.107","encoding_b7",2,"SS7",14,720.900000035763,3,1,1,0,"motor_trial_cue","SS7",7,1,"rand","pet store.png","goldenretrieverB.png",6,3
"30/07/2021 14:31:22","30/07/2021 10:31:22",56975,3,4382111,"60fead405d4fefc6731afbcc","Chrome 92.0.4515.107","encoding_b7",2,"SS7",18,1615.69999998808,2,1,1,0,"motor_trial_cue","SS7",7,2,"rand","pet store.png","snakeB.png",1,2
"30/07/2021 14:31:26","30/07/2021 10:31:26",56975,3,4382111,"60fead405d4fefc6731afbcc","Chrome 92.0.4515.107","encoding_b7",2,"SS7",20,846.699999988079,4,1,1,0,"motor_trial_cue","SS7",7,2,"rand","pet store.png","emuB.png",2,4
"30/07/2021 14:31:31","30/07/2021 10:31:31",56975,3,4382111,"60fead405d4fefc6731afbcc","Chrome 92.0.4515.107","encoding_b7",2,"SS7",22,1042.70000004768,1,1,1,0,"motor_trial_cue","SS7",7,2,"rand","pet store.png","parrotB.png",3,1
"30/07/2021 14:31:35","30/07/2021 10:31:35",56975,3,4382111,"60fead405d4fefc6731afbcc","Chrome 92.0.4515.107","encoding_b7",2,"SS7",24,998.699999988079,3,1,1,0,"motor_trial_cue","SS7",7,2,"rand","pet store.png","camelB.png",4,3
"30/07/2021 14:31:40","30/07/2021 10:31:39",56975,3,4382111,"60fead405d4fefc6731afbcc","Chrome 92.0.4515.107","encoding_b7",2,"SS7",26,629.199999988079,4,1,1,0,"motor_trial_cue","SS7",7,2,"rand","pet store.png","pangolinB.png",5,4
"30/07/2021 14:31:44","30/07/2021 10:31:44",56975,3,4382111,"60fead405d4fefc6731afbcc","Chrome 92.0.4515.107","encoding_b7",2,"SS7",28,966,3,1,1,0,"motor_trial_cue","SS7",7,2,"rand","pet store.png","crabB.png",6,3
"30/07/2021 14:31:54","30/07/2021 10:31:53",56975,3,4382111,"60fead405d4fefc6731afbcc","Chrome 92.0.4515.107","encoding_b7",2,"SS7",32,2091.19999998808,3,1,1,0,"motor_trial_mem","SS7",7,3,"pred","grocery store.png","coffeeB.png",1,3
"30/07/2021 14:31:57","30/07/2021 10:31:57",56975,3,4382111,"60fead405d4fefc6731afbcc","Chrome 92.0.4515.107","encoding_b7",2,"SS7",34,97.1000000238419,2,1,1,0,"motor_trial_mem","SS7",7,3,"pred","grocery store.png","saladB.png",2,2
"30/07/2021 14:32:01","30/07/2021 10:32:01",56975,3,4382111,"60fead405d4fefc6731afbcc","Chrome 92.0.4515.107","encoding_b7",2,"SS7",36,132.800000011921,4,1,1,0,"motor_trial_mem","SS7",7,3,"pred","grocery store.png","garlicB.png",3,4
"30/07/2021 14:32:05","30/07/2021 10:32:05",56975,3,4382111,"60fead405d4fefc6731afbcc","Chrome 92.0.4515.107","encoding_b7",2,"SS7",38,791.600000023842,2,1,1,0,"motor_trial_mem","SS7",7,3,"pred","grocery store.png","popcornB.png",4,2
"30/07/2021 14:32:09","30/07/2021 10:32:09",56975,3,4382111,"60fead405d4fefc6731afbcc","Chrome 92.0.4515.107","encoding_b7",2,"SS7",40,592.400000035763,1,1,1,0,"motor_trial_mem","SS7",7,3,"pred","grocery store.png","oliveoilB.png",5,1
"30/07/2021 14:32:13","30/07/2021 10:32:13",56975,3,4382111,"60fead405d4fefc6731afbcc","Chrome 92.0.4515.107","encoding_b7",2,"SS7",42,658.300000011921,4,1,1,0,"motor_trial_mem","SS7",7,3,"pred","grocery store.png","cupnoodleB.png",6,4
"30/07/2021 14:32:22","30/07/2021 10:32:22",56975,3,4382111,"60fead405d4fefc6731afbcc","Chrome 92.0.4515.107","encoding_b7",2,"SS7",46,890.5,3,1,1,0,"motor_trial_mem","SS7",7,4,"pred","grocery store.png","beetB.png",1,3
"30/07/2021 14:32:26","30/07/2021 10:32:26",56975,3,4382111,"60fead405d4fefc6731afbcc","Chrome 92.0.4515.107","encoding_b7",2,"SS7",48,754.5,2,1,1,0,"motor_trial_mem","SS7",7,4,"pred","grocery store.png","hummusB.png",2,2
"30/07/2021 14:32:30","30/07/2021 10:32:30",56975,3,4382111,"60fead405d4fefc6731afbcc","Chrome 92.0.4515.107","encoding_b7",2,"SS7",50,650,4,1,1,0,"motor_trial_mem","SS7",7,4,"pred","grocery store.png","soupB.png",3,4
"30/07/2021 14:32:35","30/07/2021 10:32:35",56975,3,4382111,"60fead405d4fefc6731afbcc","Chrome 92.0.4515.107","encoding_b7",2,"SS7",52,1447.80000001192,2,1,1,0,"motor_trial_mem","SS7",7,4,"pred","grocery store.png","icecreamsandwichB.png",4,2
"30/07/2021 14:32:44","30/07/2021 10:32:44",56975,3,4382111,"60fead405d4fefc6731afbcc","Chrome 92.0.4515.107","encoding_b7",2,"SS7",54,5531.09999996424,1,1,1,0,"motor_trial_mem","SS7",7,4,"pred","grocery store.png","honeycombB.png",5,1
"30/07/2021 14:32:49","30/07/2021 10:32:49",56975,3,4382111,"60fead405d4fefc6731afbcc","Chrome 92.0.4515.107","encoding_b7",2,"SS7",56,912.399999976158,4,1,1,0,"motor_trial_mem","SS7",7,4,"pred","grocery store.png","smoresB.png",6,4
"30/07/2021 14:34:07","30/07/2021 10:34:07",56975,3,4382111,"60fead405d4fefc6731afbcc","Chrome 92.0.4515.107","encoding_b8",2,"SS7",4,690.899999976158,3,1,1,0,"motor_trial_mem","SS7",8,1,"pred","grocery store.png","hotdogB.png",1,3
"30/07/2021 14:34:11","30/07/2021 10:34:11",56975,3,4382111,"60fead405d4fefc6731afbcc","Chrome 92.0.4515.107","encoding_b8",2,"SS7",6,400.300000011921,2,1,1,0,"motor_trial_mem","SS7",8,1,"pred","grocery store.png","basilB.png",2,2
"30/07/2021 14:34:15","30/07/2021 10:34:15",56975,3,4382111,"60fead405d4fefc6731afbcc","Chrome 92.0.4515.107","encoding_b8",2,"SS7",8,385.300000011921,4,1,1,0,"motor_trial_mem","SS7",8,1,"pred","grocery store.png","breadB.png",3,4
"30/07/2021 14:34:19","30/07/2021 10:34:19",56975,3,4382111,"60fead405d4fefc6731afbcc","Chrome 92.0.4515.107","encoding_b8",2,"SS7",10,316.699999988079,2,1,1,0,"motor_trial_mem","SS7",8,1,"pred","grocery store.png","walnutsB.png",4,2
"30/07/2021 14:34:23","30/07/2021 10:34:23",56975,3,4382111,"60fead405d4fefc6731afbcc","Chrome 92.0.4515.107","encoding_b8",2,"SS7",12,464.5,1,1,1,0,"motor_trial_mem","SS7",8,1,"pred","grocery store.png","acaibowlB.png",5,1
"30/07/2021 14:34:27","30/07/2021 10:34:27",56975,3,4382111,"60fead405d4fefc6731afbcc","Chrome 92.0.4515.107","encoding_b8",2,"SS7",14,567.899999976158,4,1,1,0,"motor_trial_mem","SS7",8,1,"pred","grocery store.png","poutineB.png",6,4
"30/07/2021 14:34:35","30/07/2021 10:34:35",56975,3,4382111,"60fead405d4fefc6731afbcc","Chrome 92.0.4515.107","encoding_b8",2,"SS7",18,931.900000035763,3,1,1,0,"motor_trial_mem","SS7",8,2,"pred","grocery store.png","edamameB.png",1,3
"30/07/2021 14:34:39","30/07/2021 10:34:39",56975,3,4382111,"60fead405d4fefc6731afbcc","Chrome 92.0.4515.107","encoding_b8",2,"SS7",20,444,2,1,1,0,"motor_trial_mem","SS7",8,2,"pred","grocery store.png","coconutB.png",2,2
"30/07/2021 14:34:44","30/07/2021 10:34:44",56975,3,4382111,"60fead405d4fefc6731afbcc","Chrome 92.0.4515.107","encoding_b8",2,"SS7",22,865.5,4,1,1,0,"motor_trial_mem","SS7",8,2,"pred","grocery store.png","grapesB.png",3,4
"30/07/2021 14:34:49","30/07/2021 10:34:49",56975,3,4382111,"60fead405d4fefc6731afbcc","Chrome 92.0.4515.107","encoding_b8",2,"SS7",24,1666.10000002384,2,1,1,0,"motor_trial_mem","SS7",8,2,"pred","grocery store.png","chocolateB.png",4,2
"30/07/2021 14:34:53","30/07/2021 10:34:53",56975,3,4382111,"60fead405d4fefc6731afbcc","Chrome 92.0.4515.107","encoding_b8",2,"SS7",26,537.099999964237,1,1,1,0,"motor_trial_mem","SS7",8,2,"pred","grocery store.png","jalapenoB.png",5,1
"30/07/2021 14:34:57","30/07/2021 10:34:57",56975,3,4382111,"60fead405d4fefc6731afbcc","Chrome 92.0.4515.107","encoding_b8",2,"SS7",28,451.699999988079,4,1,1,0,"motor_trial_mem","SS7",8,2,"pred","grocery store.png","bellpeppersB.png",6,4
"30/07/2021 14:35:08","30/07/2021 10:35:07",56975,3,4382111,"60fead405d4fefc6731afbcc","Chrome 92.0.4515.107","encoding_b8",2,"SS7",32,1427.89999997616,4,1,1,0,"motor_trial_cue","SS7",8,3,"rand","pet store.png","butterflyB.png",1,4
"30/07/2021 14:35:12","30/07/2021 10:35:12",56975,3,4382111,"60fead405d4fefc6731afbcc","Chrome 92.0.4515.107","encoding_b8",2,"SS7",34,944,1,1,1,0,"motor_trial_cue","SS7",8,3,"rand","pet store.png","cardinalB.png",2,1
"30/07/2021 14:35:17","30/07/2021 10:35:16",56975,3,4382111,"60fead405d4fefc6731afbcc","Chrome 92.0.4515.107","encoding_b8",2,"SS7",36,1121,3,1,1,0,"motor_trial_cue","SS7",8,3,"rand","pet store.png","turtleB.png",3,3
"30/07/2021 14:35:21","30/07/2021 10:35:21",56975,3,4382111,"60fead405d4fefc6731afbcc","Chrome 92.0.4515.107","encoding_b8",2,"SS7",38,790.800000011921,2,1,1,0,"motor_trial_cue","SS7",8,3,"rand","pet store.png","hedgehogB.png",4,2
"30/07/2021 14:35:25","30/07/2021 10:35:25",56975,3,4382111,"60fead405d4fefc6731afbcc","Chrome 92.0.4515.107","encoding_b8",2,"SS7",40,442.400000035763,3,1,1,0,"motor_trial_cue","SS7",8,3,"rand","pet store.png","owlB.png",5,3
"30/07/2021 14:35:29","30/07/2021 10:35:29",56975,3,4382111,"60fead405d4fefc6731afbcc","Chrome 92.0.4515.107","encoding_b8",2,"SS7",42,873.299999952316,1,1,1,0,"motor_trial_cue","SS7",8,3,"rand","pet store.png","pugB.png",6,1
"30/07/2021 14:35:38","30/07/2021 10:35:38",56975,3,4382111,"60fead405d4fefc6731afbcc","Chrome 92.0.4515.107","encoding_b8",2,"SS7",46,939.399999976158,2,1,1,0,"motor_trial_cue","SS7",8,4,"rand","pet store.png","elephantB.png",1,2
"30/07/2021 14:35:42","30/07/2021 10:35:42",56975,3,4382111,"60fead405d4fefc6731afbcc","Chrome 92.0.4515.107","encoding_b8",2,"SS7",48,608.199999988079,4,1,1,0,"motor_trial_cue","SS7",8,4,"rand","pet store.png","sheepB.png",2,4
"30/07/2021 14:35:46","30/07/2021 10:35:46",56975,3,4382111,"60fead405d4fefc6731afbcc","Chrome 92.0.4515.107","encoding_b8",2,"SS7",50,823.700000047684,1,1,1,0,"motor_trial_cue","SS7",8,4,"rand","pet store.png","chameleonB.png",3,1
"30/07/2021 14:35:50","30/07/2021 10:35:50",56975,3,4382111,"60fead405d4fefc6731afbcc","Chrome 92.0.4515.107","encoding_b8",2,"SS7",52,735.5,3,1,1,0,"motor_trial_cue","SS7",8,4,"rand","pet store.png","surgeonfishB.png",4,3
"30/07/2021 14:35:55","30/07/2021 10:35:55",56975,3,4382111,"60fead405d4fefc6731afbcc","Chrome 92.0.4515.107","encoding_b8",2,"SS7",54,805.100000023842,1,1,1,0,"motor_trial_cue","SS7",8,4,"rand","pet store.png","flamingoB.png",5,1
"30/07/2021 14:35:59","30/07/2021 10:35:59",56975,3,4382111,"60fead405d4fefc6731afbcc","Chrome 92.0.4515.107","encoding_b8",2,"SS7",56,862.699999988079,4,1,1,0,"motor_trial_cue","SS7",8,4,"rand","pet store.png","zebraB.png",6,4
"30/07/2021 14:09:07","30/07/2021 10:08:39",56975,3,4382102,"61004f2008fa2db433058586","Safari 14.0.3","encoding_b1",3,"SS3",4,764,3,1,1,0,"motor_trial_mem","SS3",1,1,"pred","grocery store.png","cupnoodleA.png",1,3
"30/07/2021 14:09:10","30/07/2021 10:08:42",56975,3,4382102,"61004f2008fa2db433058586","Safari 14.0.3","encoding_b1",3,"SS3",6,143,2,1,1,0,"motor_trial_mem","SS3",1,1,"pred","grocery store.png","orangeA.png",2,2
"30/07/2021 14:09:15","30/07/2021 10:08:47",56975,3,4382102,"61004f2008fa2db433058586","Safari 14.0.3","encoding_b1",3,"SS3",8,1009,4,1,1,0,"motor_trial_mem","SS3",1,1,"pred","grocery store.png","popcornshrimpA.png",3,4
"30/07/2021 14:09:19","30/07/2021 10:08:51",56975,3,4382102,"61004f2008fa2db433058586","Safari 14.0.3","encoding_b1",3,"SS3",10,1005,2,1,1,0,"motor_trial_mem","SS3",1,1,"pred","grocery store.png","basilA.png",4,2
"30/07/2021 14:09:23","30/07/2021 10:08:55",56975,3,4382102,"61004f2008fa2db433058586","Safari 14.0.3","encoding_b1",3,"SS3",12,175,1,1,1,0,"motor_trial_mem","SS3",1,1,"pred","grocery store.png","pretzelA.png",5,1
"30/07/2021 14:09:28","30/07/2021 10:09:00",56975,3,4382102,"61004f2008fa2db433058586","Safari 14.0.3","encoding_b1",3,"SS3",14,990,4,1,1,0,"motor_trial_mem","SS3",1,1,"pred","grocery store.png","bakedpotatoA.png",6,4
"30/07/2021 14:09:36","30/07/2021 10:09:08",56975,3,4382102,"61004f2008fa2db433058586","Safari 14.0.3","encoding_b1",3,"SS3",18,710,2,1,1,0,"motor_trial_cue","SS3",1,2,"rand","pet store.png","sheepA.png",1,2
"30/07/2021 14:09:40","30/07/2021 10:09:12",56975,3,4382102,"61004f2008fa2db433058586","Safari 14.0.3","encoding_b1",3,"SS3",20,558.000000000029,4,1,1,0,"motor_trial_cue","SS3",1,2,"rand","pet store.png","giraffeA.png",2,4
"30/07/2021 14:09:44","30/07/2021 10:09:16",56975,3,4382102,"61004f2008fa2db433058586","Safari 14.0.3","encoding_b1",3,"SS3",22,462,1,1,1,0,"motor_trial_cue","SS3",1,2,"rand","pet store.png","pantherA.png",3,1
"30/07/2021 14:09:48","30/07/2021 10:09:20",56975,3,4382102,"61004f2008fa2db433058586","Safari 14.0.3","encoding_b1",3,"SS3",24,534,3,1,1,0,"motor_trial_cue","SS3",1,2,"rand","pet store.png","ferretA.png",4,3
"30/07/2021 14:09:52","30/07/2021 10:09:24",56975,3,4382102,"61004f2008fa2db433058586","Safari 14.0.3","encoding_b1",3,"SS3",26,580,1,1,1,0,"motor_trial_cue","SS3",1,2,"rand","pet store.png","wolfA.png",5,1
"30/07/2021 14:09:56","30/07/2021 10:09:28",56975,3,4382102,"61004f2008fa2db433058586","Safari 14.0.3","encoding_b1",3,"SS3",28,431,4,1,1,0,"motor_trial_cue","SS3",1,2,"rand","pet store.png","killerwhaleA.png",6,4
"30/07/2021 14:10:05","30/07/2021 10:09:37",56975,3,4382102,"61004f2008fa2db433058586","Safari 14.0.3","encoding_b1",3,"SS3",32,1332,3,1,1,0,"motor_trial_mem","SS3",1,3,"pred","grocery store.png","lycheeA.png",1,3
"30/07/2021 14:10:09","30/07/2021 10:09:41",56975,3,4382102,"61004f2008fa2db433058586","Safari 14.0.3","encoding_b1",3,"SS3",34,1052,2,1,1,0,"motor_trial_mem","SS3",1,3,"pred","grocery store.png","nachosA.png",2,2
"30/07/2021 14:10:13","30/07/2021 10:09:45",56975,3,4382102,"61004f2008fa2db433058586","Safari 14.0.3","encoding_b1",3,"SS3",36,141,4,1,1,0,"motor_trial_mem","SS3",1,3,"pred","grocery store.png","burgerA.png",3,4
"30/07/2021 14:10:17","30/07/2021 10:09:49",56975,3,4382102,"61004f2008fa2db433058586","Safari 14.0.3","encoding_b1",3,"SS3",38,388.999999999971,2,1,1,0,"motor_trial_mem","SS3",1,3,"pred","grocery store.png","donutA.png",4,2
"30/07/2021 14:10:21","30/07/2021 10:09:53",56975,3,4382102,"61004f2008fa2db433058586","Safari 14.0.3","encoding_b1",3,"SS3",40,839,1,1,1,0,"motor_trial_mem","SS3",1,3,"pred","grocery store.png","appleA.png",5,1
"30/07/2021 14:10:25","30/07/2021 10:09:57",56975,3,4382102,"61004f2008fa2db433058586","Safari 14.0.3","encoding_b1",3,"SS3",42,440,4,1,1,0,"motor_trial_mem","SS3",1,3,"pred","grocery store.png","pineappleA.png",6,4
"30/07/2021 14:10:34","30/07/2021 10:10:05",56975,3,4382102,"61004f2008fa2db433058586","Safari 14.0.3","encoding_b1",3,"SS3",46,697.999999999971,2,1,1,0,"motor_trial_cue","SS3",1,4,"rand","pet store.png","bisonA.png",1,2
"30/07/2021 14:10:38","30/07/2021 10:10:09",56975,3,4382102,"61004f2008fa2db433058586","Safari 14.0.3","encoding_b1",3,"SS3",48,516,3,1,1,0,"motor_trial_cue","SS3",1,4,"rand","pet store.png","elephantA.png",2,3
"30/07/2021 14:10:41","30/07/2021 10:10:13",56975,3,4382102,"61004f2008fa2db433058586","Safari 14.0.3","encoding_b1",3,"SS3",50,403,1,1,1,0,"motor_trial_cue","SS3",1,4,"rand","pet store.png","catA.png",3,1
"30/07/2021 14:10:46","30/07/2021 10:10:18",56975,3,4382102,"61004f2008fa2db433058586","Safari 14.0.3","encoding_b1",3,"SS3",52,688,3,1,1,0,"motor_trial_cue","SS3",1,4,"rand","pet store.png","kangarooA.png",4,3
"30/07/2021 14:10:50","30/07/2021 10:10:21",56975,3,4382102,"61004f2008fa2db433058586","Safari 14.0.3","encoding_b1",3,"SS3",54,409,4,1,1,0,"motor_trial_cue","SS3",1,4,"rand","pet store.png","foxA.png",5,4
"30/07/2021 14:10:54","30/07/2021 10:10:25",56975,3,4382102,"61004f2008fa2db433058586","Safari 14.0.3","encoding_b1",3,"SS3",56,427,1,1,1,0,"motor_trial_cue","SS3",1,4,"rand","pet store.png","rabbitA.png",6,1
"30/07/2021 14:12:42","30/07/2021 10:12:14",56975,3,4382102,"61004f2008fa2db433058586","Safari 14.0.3","encoding_b2",2,"SS3",4,809,2,1,1,0,"motor_trial_cue","SS3",2,1,"rand","pet store.png","bettafishA.png",1,2
"30/07/2021 14:12:46","30/07/2021 10:12:18",56975,3,4382102,"61004f2008fa2db433058586","Safari 14.0.3","encoding_b2",2,"SS3",6,546.999999999996,1,1,1,0,"motor_trial_cue","SS3",2,1,"rand","pet store.png","penguinA.png",2,1
"30/07/2021 14:12:50","30/07/2021 10:12:22",56975,3,4382102,"61004f2008fa2db433058586","Safari 14.0.3","encoding_b2",2,"SS3",8,520.999999999996,4,1,1,0,"motor_trial_cue","SS3",2,1,"rand","pet store.png","butterflyA.png",3,4
"30/07/2021 14:12:54","30/07/2021 10:12:26",56975,3,4382102,"61004f2008fa2db433058586","Safari 14.0.3","encoding_b2",2,"SS3",10,874,3,1,1,0,"motor_trial_cue","SS3",2,1,"rand","pet store.png","flamingoA.png",4,3
"30/07/2021 14:12:58","30/07/2021 10:12:30",56975,3,4382102,"61004f2008fa2db433058586","Safari 14.0.3","encoding_b2",2,"SS3",12,736,1,1,1,0,"motor_trial_cue","SS3",2,1,"rand","pet store.png","gorillaA.png",5,1
"30/07/2021 14:13:02","30/07/2021 10:12:34",56975,3,4382102,"61004f2008fa2db433058586","Safari 14.0.3","encoding_b2",2,"SS3",14,515,3,1,1,0,"motor_trial_cue","SS3",2,1,"rand","pet store.png","cheetahA.png",6,3
"30/07/2021 14:13:11","30/07/2021 10:12:43",56975,3,4382102,"61004f2008fa2db433058586","Safari 14.0.3","encoding_b2",2,"SS3",18,854,3,1,1,0,"motor_trial_mem","SS3",2,2,"pred","grocery store.png","milkA.png",1,3
"30/07/2021 14:13:15","30/07/2021 10:12:47",56975,3,4382102,"61004f2008fa2db433058586","Safari 14.0.3","encoding_b2",2,"SS3",20,415,2,1,1,0,"motor_trial_mem","SS3",2,2,"pred","grocery store.png","coffeeA.png",2,2
"30/07/2021 14:13:19","30/07/2021 10:12:51",56975,3,4382102,"61004f2008fa2db433058586","Safari 14.0.3","encoding_b2",2,"SS3",22,841,4,1,1,0,"motor_trial_mem","SS3",2,2,"pred","grocery store.png","pieA.png",3,4
"30/07/2021 14:13:24","30/07/2021 10:12:56",56975,3,4382102,"61004f2008fa2db433058586","Safari 14.0.3","encoding_b2",2,"SS3",24,1130,2,1,1,0,"motor_trial_mem","SS3",2,2,"pred","grocery store.png","pancakesA.png",4,2
"30/07/2021 14:13:28","30/07/2021 10:13:00",56975,3,4382102,"61004f2008fa2db433058586","Safari 14.0.3","encoding_b2",2,"SS3",26,517.000000000015,1,1,1,0,"motor_trial_mem","SS3",2,2,"pred","grocery store.png","ravioliA.png",5,1
"30/07/2021 14:13:32","30/07/2021 10:13:04",56975,3,4382102,"61004f2008fa2db433058586","Safari 14.0.3","encoding_b2",2,"SS3",28,1036,4,1,1,0,"motor_trial_mem","SS3",2,2,"pred","grocery store.png","garlicA.png",6,4
"30/07/2021 14:13:41","30/07/2021 10:13:12",56975,3,4382102,"61004f2008fa2db433058586","Safari 14.0.3","encoding_b2",2,"SS3",32,747,2,1,1,0,"motor_trial_cue","SS3",2,3,"rand","pet store.png","chimpA.png",1,2
"30/07/2021 14:13:45","30/07/2021 10:13:16",56975,3,4382102,"61004f2008fa2db433058586","Safari 14.0.3","encoding_b2",2,"SS3",34,524,1,1,1,0,"motor_trial_cue","SS3",2,3,"rand","pet store.png","seahorseA.png",2,1
"30/07/2021 14:13:49","30/07/2021 10:13:20",56975,3,4382102,"61004f2008fa2db433058586","Safari 14.0.3","encoding_b2",2,"SS3",36,451,3,1,1,0,"motor_trial_cue","SS3",2,3,"rand","pet store.png","donkeyA.png",3,3
"30/07/2021 14:13:53","30/07/2021 10:13:25",56975,3,4382102,"61004f2008fa2db433058586","Safari 14.0.3","encoding_b2",2,"SS3",38,718.000000000015,4,1,1,0,"motor_trial_cue","SS3",2,3,"rand","pet store.png","hermitcrabA.png",4,4
"30/07/2021 14:13:57","30/07/2021 10:13:29",56975,3,4382102,"61004f2008fa2db433058586","Safari 14.0.3","encoding_b2",2,"SS3",40,455,1,1,1,0,"motor_trial_cue","SS3",2,3,"rand","pet store.png","frogA.png",5,1
"30/07/2021 14:14:01","30/07/2021 10:13:33",56975,3,4382102,"61004f2008fa2db433058586","Safari 14.0.3","encoding_b2",2,"SS3",42,646,4,1,1,0,"motor_trial_cue","SS3",2,3,"rand","pet store.png","platypusA.png",6,4
"30/07/2021 14:14:11","30/07/2021 10:13:43",56975,3,4382102,"61004f2008fa2db433058586","Safari 14.0.3","encoding_b2",2,"SS3",46,2645,3,1,1,0,"motor_trial_mem","SS3",2,4,"pred","grocery store.png","cakeA.png",1,3
"30/07/2021 14:14:15","30/07/2021 10:13:47",56975,3,4382102,"61004f2008fa2db433058586","Safari 14.0.3","encoding_b2",2,"SS3",48,504,2,1,1,0,"motor_trial_mem","SS3",2,4,"pred","grocery store.png","eggA.png",2,2
"30/07/2021 14:14:19","30/07/2021 10:13:51",56975,3,4382102,"61004f2008fa2db433058586","Safari 14.0.3","encoding_b2",2,"SS3",50,359,4,1,1,0,"motor_trial_mem","SS3",2,4,"pred","grocery store.png","ramenA.png",3,4
"30/07/2021 14:14:23","30/07/2021 10:13:55",56975,3,4382102,"61004f2008fa2db433058586","Safari 14.0.3","encoding_b2",2,"SS3",52,364,2,1,1,0,"motor_trial_mem","SS3",2,4,"pred","grocery store.png","cookiesA.png",4,2
"30/07/2021 14:14:26","30/07/2021 10:13:58",56975,3,4382102,"61004f2008fa2db433058586","Safari 14.0.3","encoding_b2",2,"SS3",54,78,1,1,1,0,"motor_trial_mem","SS3",2,4,"pred","grocery store.png","blackpepperA.png",5,1
"30/07/2021 14:14:31","30/07/2021 10:14:03",56975,3,4382102,"61004f2008fa2db433058586","Safari 14.0.3","encoding_b2",2,"SS3",56,1087,4,1,1,0,"motor_trial_mem","SS3",2,4,"pred","grocery store.png","honeycombA.png",6,4
"30/07/2021 14:15:48","30/07/2021 10:15:20",56975,3,4382102,"61004f2008fa2db433058586","Safari 14.0.3","encoding_b3",2,"SS3",4,1097,3,1,1,0,"motor_trial_mem","SS3",3,1,"pred","grocery store.png","muffinA.png",1,3
"30/07/2021 14:15:52","30/07/2021 10:15:24",56975,3,4382102,"61004f2008fa2db433058586","Safari 14.0.3","encoding_b3",2,"SS3",6,255,2,1,1,0,"motor_trial_mem","SS3",3,1,"pred","grocery store.png","cookedchickenA.png",2,2
"30/07/2021 14:15:56","30/07/2021 10:15:27",56975,3,4382102,"61004f2008fa2db433058586","Safari 14.0.3","encoding_b3",2,"SS3",8,309,4,1,1,0,"motor_trial_mem","SS3",3,1,"pred","grocery store.png","waffleA.png",3,4
"30/07/2021 14:16:00","30/07/2021 10:15:32",56975,3,4382102,"61004f2008fa2db433058586","Safari 14.0.3","encoding_b3",2,"SS3",10,603,2,1,1,0,"motor_trial_mem","SS3",3,1,"pred","grocery store.png","walnutsA.png",4,2
"30/07/2021 14:16:04","30/07/2021 10:15:36",56975,3,4382102,"61004f2008fa2db433058586","Safari 14.0.3","encoding_b3",2,"SS3",12,515,1,1,1,0,"motor_trial_mem","SS3",3,1,"pred","grocery store.png","hotdogA.png",5,1
"30/07/2021 14:16:07","30/07/2021 10:15:39",56975,3,4382102,"61004f2008fa2db433058586","Safari 14.0.3","encoding_b3",2,"SS3",14,50,4,1,1,0,"motor_trial_mem","SS3",3,1,"pred","grocery store.png","beetA.png",6,4
"30/07/2021 14:16:16","30/07/2021 10:15:48",56975,3,4382102,"61004f2008fa2db433058586","Safari 14.0.3","encoding_b3",2,"SS3",18,895,3,1,1,0,"motor_trial_mem","SS3",3,2,"pred","grocery store.png","tomatoA.png",1,3
"30/07/2021 14:16:20","30/07/2021 10:15:52",56975,3,4382102,"61004f2008fa2db433058586","Safari 14.0.3","encoding_b3",2,"SS3",20,756,2,1,1,0,"motor_trial_mem","SS3",3,2,"pred","grocery store.png","lemonA.png",2,2
"30/07/2021 14:16:24","30/07/2021 10:15:56",56975,3,4382102,"61004f2008fa2db433058586","Safari 14.0.3","encoding_b3",2,"SS3",22,432,4,1,1,0,"motor_trial_mem","SS3",3,2,"pred","grocery store.png","cherriesA.png",3,4
"30/07/2021 14:16:28","30/07/2021 10:16:00",56975,3,4382102,"61004f2008fa2db433058586","Safari 14.0.3","encoding_b3",2,"SS3",24,823,2,1,1,0,"motor_trial_mem","SS3",3,2,"pred","grocery store.png","kiwiA.png",4,2
"30/07/2021 14:16:32","30/07/2021 10:16:04",56975,3,4382102,"61004f2008fa2db433058586","Safari 14.0.3","encoding_b3",2,"SS3",26,330.000000000007,1,1,1,0,"motor_trial_mem","SS3",3,2,"pred","grocery store.png","cerealA.png",5,1
