"utc_date","local_date","exp_id","exp_ver","id","prolific_id","browser","task","task_ver","gorilla_counterbalance","trial_row","rt","response","response_bin","confidence","recog_correct","attempt","accuracy","dishonest","display","counterbalance_order","list","quarter","event","event_name","condition","seq_pos","spatial_pos","recog_block","recog_stim","recog_cond"
"14/07/2021 19:52:51","14/07/2021 15:52:52",56975,3,4265819,"60d5d29541e3a5a148be906c","Chrome 91.0.4472.124","recognition",3,"SS5",4,1708.89999999851,"def_old","old","high","old",1,1,0,"recog_trial","SS5",8,4,3,"grocery store.png","pred",4,4,1,"guavaB.png","target"
"14/07/2021 19:52:53","14/07/2021 15:52:54",56975,3,4265819,"60d5d29541e3a5a148be906c","Chrome 91.0.4472.124","recognition",3,"SS5",5,773.300000000745,"def_old","old","high","old",1,1,0,"recog_trial","SS5",6,3,2,"grocery store.png","pred",2,4,1,"pieB.png","target"
"14/07/2021 19:52:56","14/07/2021 15:52:56",56975,3,4265819,"60d5d29541e3a5a148be906c","Chrome 91.0.4472.124","recognition",3,"SS5",6,1661.19999999925,"def_new","new","high","new",1,1,0,"recog_trial","SS5",5,3,1,"grocery store.png","pred",4,4,1,"cupcakeA.png","lure"
"14/07/2021 19:53:01","14/07/2021 15:53:01",56975,3,4265819,"60d5d29541e3a5a148be906c","Chrome 91.0.4472.124","recognition",3,"SS5",7,3923.40000000224,"def_old","old","high","old",1,1,0,"recog_trial","SS5",4,2,2,"pet store.png","rand",2,1,1,"squirrelB.png","target"
"14/07/2021 19:53:03","14/07/2021 15:53:03",56975,3,4265819,"60d5d29541e3a5a148be906c","Chrome 91.0.4472.124","recognition",3,"SS5",8,810.70000000298,"def_old","old","high","old",1,1,0,"recog_trial","SS5",1,1,2,"grocery store.png","pred",5,2,1,"celeryB.png","target"
"14/07/2021 19:53:10","14/07/2021 15:53:10",56975,3,4265819,"60d5d29541e3a5a148be906c","Chrome 91.0.4472.124","recognition",3,"SS5",9,6359.59999999776,"def_new","new","high","new",1,1,0,"recog_trial","SS5",7,4,2,"pet store.png","rand",1,2,1,"donkeyA.png","lure"
"14/07/2021 19:53:12","14/07/2021 15:53:13",56975,3,4265819,"60d5d29541e3a5a148be906c","Chrome 91.0.4472.124","recognition",3,"SS5",10,1356.30000000075,"def_old","old","high","new",1,0,0,"recog_trial","SS5",5,3,3,"pet store.png","rand",6,4,1,"zebraA.png","lure"
"14/07/2021 19:53:15","14/07/2021 15:53:15",56975,3,4265819,"60d5d29541e3a5a148be906c","Chrome 91.0.4472.124","recognition",3,"SS5",11,1606.70000000298,"def_new","new","high","new",1,1,0,"recog_trial","SS5",2,1,3,"grocery store.png","pred",2,4,1,"onionA.png","lure"
"14/07/2021 19:53:18","14/07/2021 15:53:18",56975,3,4265819,"60d5d29541e3a5a148be906c","Chrome 91.0.4472.124","recognition",3,"SS5",12,1950,"def_new","new","high","new",1,1,0,"recog_trial","SS5",6,3,1,"pet store.png","rand",5,4,1,"canadiangooseA.png","lure"
"14/07/2021 19:53:20","14/07/2021 15:53:21",56975,3,4265819,"60d5d29541e3a5a148be906c","Chrome 91.0.4472.124","recognition",3,"SS5",13,1156.90000000224,"def_old","old","high","old",1,1,0,"recog_trial","SS5",8,4,3,"grocery store.png","pred",3,3,1,"cantaloupeB.png","target"
"14/07/2021 19:53:22","14/07/2021 15:53:22",56975,3,4265819,"60d5d29541e3a5a148be906c","Chrome 91.0.4472.124","recognition",3,"SS5",14,759.800000000745,"def_old","old","high","old",1,1,0,"recog_trial","SS5",6,3,1,"pet store.png","rand",3,4,1,"grasshopperB.png","target"
"14/07/2021 19:53:24","14/07/2021 15:53:24",56975,3,4265819,"60d5d29541e3a5a148be906c","Chrome 91.0.4472.124","recognition",3,"SS5",15,786.800000000745,"def_old","old","high","old",1,1,0,"recog_trial","SS5",4,2,2,"pet store.png","rand",6,1,1,"horseB.png","target"
"14/07/2021 19:53:26","14/07/2021 15:53:26",56975,3,4265819,"60d5d29541e3a5a148be906c","Chrome 91.0.4472.124","recognition",3,"SS5",16,1057.80000000075,"def_new","new","high","new",1,1,0,"recog_trial","SS5",8,4,3,"grocery store.png","pred",2,4,1,"seaweedA.png","lure"
"14/07/2021 19:53:28","14/07/2021 15:53:29",56975,3,4265819,"60d5d29541e3a5a148be906c","Chrome 91.0.4472.124","recognition",3,"SS5",17,1185.39999999851,"def_old","old","high","old",1,1,0,"recog_trial","SS5",3,2,4,"grocery store.png","pred",3,3,1,"gummybearsB.png","target"
"14/07/2021 19:53:30","14/07/2021 15:53:31",56975,3,4265819,"60d5d29541e3a5a148be906c","Chrome 91.0.4472.124","recognition",3,"SS5",18,996.39999999851,"def_new","new","high","new",1,1,0,"recog_trial","SS5",2,1,3,"grocery store.png","pred",3,3,1,"mustardA.png","lure"
"14/07/2021 19:53:32","14/07/2021 15:53:33",56975,3,4265819,"60d5d29541e3a5a148be906c","Chrome 91.0.4472.124","recognition",3,"SS5",19,1172.5,"def_new","new","high","new",1,1,0,"recog_trial","SS5",2,1,3,"grocery store.png","pred",5,2,1,"grapesA.png","lure"
"14/07/2021 19:53:34","14/07/2021 15:53:35",56975,3,4265819,"60d5d29541e3a5a148be906c","Chrome 91.0.4472.124","recognition",3,"SS5",20,792,"def_new","new","high","new",1,1,0,"recog_trial","SS5",3,2,3,"pet store.png","rand",3,1,1,"dragonflyA.png","lure"
"14/07/2021 19:53:36","14/07/2021 15:53:36",56975,3,4265819,"60d5d29541e3a5a148be906c","Chrome 91.0.4472.124","recognition",3,"SS5",21,688.400000002235,"def_new","new","high","new",1,1,0,"recog_trial","SS5",4,2,4,"grocery store.png","pred",3,3,1,"cookedchickenA.png","lure"
"14/07/2021 19:53:38","14/07/2021 15:53:38",56975,3,4265819,"60d5d29541e3a5a148be906c","Chrome 91.0.4472.124","recognition",3,"SS5",22,834.199999999255,"def_new","new","high","new",1,1,0,"recog_trial","SS5",7,4,1,"grocery store.png","pred",4,4,1,"granolaA.png","lure"
"14/07/2021 19:53:40","14/07/2021 15:53:40",56975,3,4265819,"60d5d29541e3a5a148be906c","Chrome 91.0.4472.124","recognition",3,"SS5",23,731.099999997765,"def_old","old","high","old",1,1,0,"recog_trial","SS5",7,4,1,"grocery store.png","pred",5,2,1,"cabbageB.png","target"
"14/07/2021 19:53:42","14/07/2021 15:53:42",56975,3,4265819,"60d5d29541e3a5a148be906c","Chrome 91.0.4472.124","recognition",3,"SS5",24,1310.89999999851,"def_old","old","high","old",1,1,0,"recog_trial","SS5",5,3,3,"pet store.png","rand",5,2,1,"lemurB.png","target"
"14/07/2021 19:53:44","14/07/2021 15:53:44",56975,3,4265819,"60d5d29541e3a5a148be906c","Chrome 91.0.4472.124","recognition",3,"SS5",25,808.60000000149,"def_new","new","high","new",1,1,0,"recog_trial","SS5",3,2,3,"pet store.png","rand",5,4,1,"kangarooA.png","lure"
"14/07/2021 19:53:47","14/07/2021 15:53:48",56975,3,4265819,"60d5d29541e3a5a148be906c","Chrome 91.0.4472.124","recognition",3,"SS5",26,2561.69999999925,"def_old","old","high","old",1,1,0,"recog_trial","SS5",2,1,4,"pet store.png","rand",3,2,1,"hummingbirdB.png","target"
"14/07/2021 19:53:49","14/07/2021 15:53:50",56975,3,4265819,"60d5d29541e3a5a148be906c","Chrome 91.0.4472.124","recognition",3,"SS5",27,828.800000000745,"def_new","new","high","old",1,0,0,"recog_trial","SS5",1,1,4,"pet store.png","rand",2,4,1,"turkeyB.png","target"
"14/07/2021 19:54:01","14/07/2021 15:54:02",56975,3,4265819,"60d5d29541e3a5a148be906c","Chrome 91.0.4472.124","recognition",3,"SS5",29,2134.60000000149,"def_old","old","high","old",1,1,0,"recog_trial","SS5",6,3,1,"pet store.png","rand",6,1,2,"badgerB.png","target"
"14/07/2021 19:54:03","14/07/2021 15:54:03",56975,3,4265819,"60d5d29541e3a5a148be906c","Chrome 91.0.4472.124","recognition",3,"SS5",30,857.29999999702,"def_old","old","high","old",1,1,0,"recog_trial","SS5",7,4,2,"pet store.png","rand",4,4,2,"llamaB.png","target"
"14/07/2021 19:54:05","14/07/2021 15:54:06",56975,3,4265819,"60d5d29541e3a5a148be906c","Chrome 91.0.4472.124","recognition",3,"SS5",31,1032.19999999925,"def_new","new","high","new",1,1,0,"recog_trial","SS5",7,4,1,"grocery store.png","pred",1,1,2,"dumplingsA.png","lure"
"14/07/2021 19:54:07","14/07/2021 15:54:07",56975,3,4265819,"60d5d29541e3a5a148be906c","Chrome 91.0.4472.124","recognition",3,"SS5",32,780.699999999255,"def_old","old","high","old",1,1,0,"recog_trial","SS5",8,4,1,"pet store.png","rand",2,2,2,"koalaB.png","target"
"14/07/2021 19:54:09","14/07/2021 15:54:09",56975,3,4265819,"60d5d29541e3a5a148be906c","Chrome 91.0.4472.124","recognition",3,"SS5",33,895.199999999255,"def_old","old","high","old",1,1,0,"recog_trial","SS5",6,3,2,"grocery store.png","pred",4,4,2,"strawberriesB.png","target"
"14/07/2021 19:54:11","14/07/2021 15:54:11",56975,3,4265819,"60d5d29541e3a5a148be906c","Chrome 91.0.4472.124","recognition",3,"SS5",34,1105.39999999851,"def_new","new","high","new",1,1,0,"recog_trial","SS5",4,2,4,"grocery store.png","pred",5,2,2,"artichokeA.png","lure"
"14/07/2021 19:54:13","14/07/2021 15:54:13",56975,3,4265819,"60d5d29541e3a5a148be906c","Chrome 91.0.4472.124","recognition",3,"SS5",35,901.5,"def_old","old","high","old",1,1,0,"recog_trial","SS5",3,2,4,"grocery store.png","pred",2,4,2,"garlicB.png","target"
"14/07/2021 19:54:15","14/07/2021 15:54:15",56975,3,4265819,"60d5d29541e3a5a148be906c","Chrome 91.0.4472.124","recognition",3,"SS5",36,683.5,"def_old","old","high","new",1,0,0,"recog_trial","SS5",3,2,4,"grocery store.png","pred",4,4,2,"pancakesA.png","lure"
"14/07/2021 19:54:17","14/07/2021 15:54:18",56975,3,4265819,"60d5d29541e3a5a148be906c","Chrome 91.0.4472.124","recognition",3,"SS5",37,1372.30000000075,"def_old","old","high","old",1,1,0,"recog_trial","SS5",4,2,4,"grocery store.png","pred",6,3,2,"croissantB.png","target"
"14/07/2021 19:54:19","14/07/2021 15:54:20",56975,3,4265819,"60d5d29541e3a5a148be906c","Chrome 91.0.4472.124","recognition",3,"SS5",38,1285.10000000149,"def_new","new","high","new",1,1,0,"recog_trial","SS5",5,3,1,"grocery store.png","pred",3,3,2,"basilA.png","lure"
"14/07/2021 19:54:21","14/07/2021 15:54:22",56975,3,4265819,"60d5d29541e3a5a148be906c","Chrome 91.0.4472.124","recognition",3,"SS5",39,809.800000000745,"def_old","old","high","old",1,1,0,"recog_trial","SS5",7,4,1,"grocery store.png","pred",6,3,2,"blackpepperB.png","target"
"14/07/2021 19:54:23","14/07/2021 15:54:24",56975,3,4265819,"60d5d29541e3a5a148be906c","Chrome 91.0.4472.124","recognition",3,"SS5",40,1018.10000000149,"def_old","old","high","old",1,1,0,"recog_trial","SS5",5,3,1,"grocery store.png","pred",5,2,2,"kiwiB.png","target"
"14/07/2021 19:54:25","14/07/2021 15:54:26",56975,3,4265819,"60d5d29541e3a5a148be906c","Chrome 91.0.4472.124","recognition",3,"SS5",41,1072.30000000075,"def_old","old","high","new",1,0,0,"recog_trial","SS5",2,1,4,"pet store.png","rand",2,1,2,"camelA.png","lure"
"14/07/2021 19:54:27","14/07/2021 15:54:28",56975,3,4265819,"60d5d29541e3a5a148be906c","Chrome 91.0.4472.124","recognition",3,"SS5",42,1076.60000000149,"def_new","new","high","new",1,1,0,"recog_trial","SS5",1,1,4,"pet store.png","rand",3,1,2,"tortoiseA.png","lure"
"14/07/2021 19:54:30","14/07/2021 15:54:30",56975,3,4265819,"60d5d29541e3a5a148be906c","Chrome 91.0.4472.124","recognition",3,"SS5",43,1004.69999999925,"def_old","old","high","old",1,1,0,"recog_trial","SS5",2,1,3,"grocery store.png","pred",6,3,2,"bagelB.png","target"
"14/07/2021 19:54:31","14/07/2021 15:54:32",56975,3,4265819,"60d5d29541e3a5a148be906c","Chrome 91.0.4472.124","recognition",3,"SS5",44,762,"def_old","old","high","old",1,1,0,"recog_trial","SS5",1,1,2,"grocery store.png","pred",3,3,2,"avocadoB.png","target"
"14/07/2021 19:54:35","14/07/2021 15:54:35",56975,3,4265819,"60d5d29541e3a5a148be906c","Chrome 91.0.4472.124","recognition",3,"SS5",45,2202.59999999776,"def_old","old","high","old",1,1,0,"recog_trial","SS5",3,2,4,"grocery store.png","pred",5,2,2,"raspberriesB.png","target"
"14/07/2021 19:54:37","14/07/2021 15:54:37",56975,3,4265819,"60d5d29541e3a5a148be906c","Chrome 91.0.4472.124","recognition",3,"SS5",46,942.699999999255,"def_new","new","high","new",1,1,0,"recog_trial","SS5",6,3,1,"pet store.png","rand",1,2,2,"goatA.png","lure"
"14/07/2021 19:54:38","14/07/2021 15:54:39",56975,3,4265819,"60d5d29541e3a5a148be906c","Chrome 91.0.4472.124","recognition",3,"SS5",47,861.60000000149,"def_new","new","high","new",1,1,0,"recog_trial","SS5",6,3,2,"grocery store.png","pred",5,2,2,"jalapenoA.png","lure"
"14/07/2021 19:54:40","14/07/2021 15:54:41",56975,3,4265819,"60d5d29541e3a5a148be906c","Chrome 91.0.4472.124","recognition",3,"SS5",48,849.900000002235,"def_new","new","high","new",1,1,0,"recog_trial","SS5",8,4,3,"grocery store.png","pred",5,2,2,"hummusA.png","lure"
"14/07/2021 19:54:44","14/07/2021 15:54:44",56975,3,4265819,"60d5d29541e3a5a148be906c","Chrome 91.0.4472.124","recognition",3,"SS5",49,2556.69999999925,"def_new","new","high","new",1,1,0,"recog_trial","SS5",2,1,4,"pet store.png","rand",1,3,2,"lionA.png","lure"
"14/07/2021 19:54:46","14/07/2021 15:54:46",56975,3,4265819,"60d5d29541e3a5a148be906c","Chrome 91.0.4472.124","recognition",3,"SS5",50,875.10000000149,"def_new","new","high","new",1,1,0,"recog_trial","SS5",3,2,3,"pet store.png","rand",2,3,2,"pufferfishA.png","lure"
"14/07/2021 19:54:48","14/07/2021 15:54:48",56975,3,4265819,"60d5d29541e3a5a148be906c","Chrome 91.0.4472.124","recognition",3,"SS5",51,908.199999999255,"def_old","old","high","old",1,1,0,"recog_trial","SS5",2,1,4,"pet store.png","rand",6,2,2,"cuttlefishB.png","target"
"14/07/2021 19:54:50","14/07/2021 15:54:50",56975,3,4265819,"60d5d29541e3a5a148be906c","Chrome 91.0.4472.124","recognition",3,"SS5",52,989.5,"def_new","new","high","new",1,1,0,"recog_trial","SS5",8,4,1,"pet store.png","rand",4,1,2,"owlA.png","lure"
"14/07/2021 19:54:55","14/07/2021 15:54:56",56975,3,4265819,"60d5d29541e3a5a148be906c","Chrome 91.0.4472.124","recognition",3,"SS5",54,940.39999999851,"def_old","old","high","old",1,1,0,"recog_trial","SS5",5,3,3,"pet store.png","rand",4,1,3,"pangolinB.png","target"
"14/07/2021 19:54:57","14/07/2021 15:54:57",56975,3,4265819,"60d5d29541e3a5a148be906c","Chrome 91.0.4472.124","recognition",3,"SS5",55,869.5,"def_new","new","high","old",1,0,0,"recog_trial","SS5",8,4,3,"grocery store.png","pred",1,1,3,"pineappleB.png","target"
"14/07/2021 19:54:59","14/07/2021 15:54:59",56975,3,4265819,"60d5d29541e3a5a148be906c","Chrome 91.0.4472.124","recognition",3,"SS5",56,929.60000000149,"def_old","old","high","old",1,1,0,"recog_trial","SS5",3,2,3,"pet store.png","rand",4,3,3,"turtleB.png","target"
"14/07/2021 19:55:01","14/07/2021 15:55:01",56975,3,4265819,"60d5d29541e3a5a148be906c","Chrome 91.0.4472.124","recognition",3,"SS5",57,773.900000002235,"def_old","old","high","old",1,1,0,"recog_trial","SS5",8,4,1,"pet store.png","rand",1,3,3,"giraffeB.png","target"
"14/07/2021 19:55:03","14/07/2021 15:55:03",56975,3,4265819,"60d5d29541e3a5a148be906c","Chrome 91.0.4472.124","recognition",3,"SS5",58,1010.80000000075,"def_old","old","high","old",1,1,0,"recog_trial","SS5",4,2,2,"pet store.png","rand",5,3,3,"butterflyB.png","target"
"14/07/2021 19:55:05","14/07/2021 15:55:05",56975,3,4265819,"60d5d29541e3a5a148be906c","Chrome 91.0.4472.124","recognition",3,"SS5",59,876.300000000745,"def_old","old","high","old",1,1,0,"recog_trial","SS5",2,1,3,"grocery store.png","pred",4,4,3,"popcornB.png","target"
"14/07/2021 19:55:06","14/07/2021 15:55:07",56975,3,4265819,"60d5d29541e3a5a148be906c","Chrome 91.0.4472.124","recognition",3,"SS5",60,693.099999997765,"def_new","new","high","old",1,0,0,"recog_trial","SS5",1,1,2,"grocery store.png","pred",2,4,3,"orangeB.png","target"
"14/07/2021 19:55:08","14/07/2021 15:55:09",56975,3,4265819,"60d5d29541e3a5a148be906c","Chrome 91.0.4472.124","recognition",3,"SS5",61,884.60000000149,"def_new","new","high","new",1,1,0,"recog_trial","SS5",8,4,1,"pet store.png","rand",6,2,3,"caterpillarA.png","lure"
"14/07/2021 19:55:10","14/07/2021 15:55:11",56975,3,4265819,"60d5d29541e3a5a148be906c","Chrome 91.0.4472.124","recognition",3,"SS5",62,806.79999999702,"def_new","new","high","new",1,1,0,"recog_trial","SS5",7,4,2,"pet store.png","rand",2,3,3,"penguinA.png","lure"
"14/07/2021 19:55:12","14/07/2021 15:55:13",56975,3,4265819,"60d5d29541e3a5a148be906c","Chrome 91.0.4472.124","recognition",3,"SS5",63,885.800000000745,"def_old","old","high","old",1,1,0,"recog_trial","SS5",2,1,4,"pet store.png","rand",5,4,3,"snailB.png","target"
"14/07/2021 19:55:14","14/07/2021 15:55:14",56975,3,4265819,"60d5d29541e3a5a148be906c","Chrome 91.0.4472.124","recognition",3,"SS5",64,833.89999999851,"def_new","new","high","new",1,1,0,"recog_trial","SS5",5,3,1,"grocery store.png","pred",6,3,3,"sandwichA.png","lure"
"14/07/2021 19:55:16","14/07/2021 15:55:16",56975,3,4265819,"60d5d29541e3a5a148be906c","Chrome 91.0.4472.124","recognition",3,"SS5",65,724.89999999851,"def_new","new","high","new",1,1,0,"recog_trial","SS5",4,2,4,"grocery store.png","pred",2,4,3,"porkA.png","lure"
"14/07/2021 19:55:18","14/07/2021 15:55:18",56975,3,4265819,"60d5d29541e3a5a148be906c","Chrome 91.0.4472.124","recognition",3,"SS5",66,1051.5,"def_old","old","high","new",1,0,0,"recog_trial","SS5",4,2,2,"pet store.png","rand",1,4,3,"crocodileA.png","lure"
"14/07/2021 19:55:20","14/07/2021 15:55:20",56975,3,4265819,"60d5d29541e3a5a148be906c","Chrome 91.0.4472.124","recognition",3,"SS5",67,964.699999999255,"def_new","new","high","new",1,1,0,"recog_trial","SS5",1,1,4,"pet store.png","rand",6,4,3,"polarbearA.png","lure"
"14/07/2021 19:55:22","14/07/2021 15:55:22",56975,3,4265819,"60d5d29541e3a5a148be906c","Chrome 91.0.4472.124","recognition",3,"SS5",68,772.5,"def_old","old","high","new",1,0,0,"recog_trial","SS5",5,3,3,"pet store.png","rand",3,4,3,"chickenA.png","lure"
"14/07/2021 19:55:24","14/07/2021 15:55:24",56975,3,4265819,"60d5d29541e3a5a148be906c","Chrome 91.0.4472.124","recognition",3,"SS5",69,821.20000000298,"def_old","old","high","old",1,1,0,"recog_trial","SS5",4,2,4,"grocery store.png","pred",1,1,3,"cornB.png","target"
"14/07/2021 19:55:26","14/07/2021 15:55:27",56975,3,4265819,"60d5d29541e3a5a148be906c","Chrome 91.0.4472.124","recognition",3,"SS5",70,1773.5,"def_old","old","high","new",1,0,0,"recog_trial","SS5",6,3,1,"pet store.png","rand",4,3,3,"rhinoA.png","lure"
"14/07/2021 19:55:28","14/07/2021 15:55:29",56975,3,4265819,"60d5d29541e3a5a148be906c","Chrome 91.0.4472.124","recognition",3,"SS5",71,697.60000000149,"def_old","old","high","old",1,1,0,"recog_trial","SS5",5,3,3,"pet store.png","rand",2,1,3,"stingrayB.png","target"
"14/07/2021 19:55:30","14/07/2021 15:55:31",56975,3,4265819,"60d5d29541e3a5a148be906c","Chrome 91.0.4472.124","recognition",3,"SS5",72,945.800000000745,"def_new","new","high","new",1,1,0,"recog_trial","SS5",1,1,2,"grocery store.png","pred",1,1,3,"peachesA.png","lure"
"14/07/2021 19:55:32","14/07/2021 15:55:33",56975,3,4265819,"60d5d29541e3a5a148be906c","Chrome 91.0.4472.124","recognition",3,"SS5",73,1359.30000000075,"def_new","new","high","new",1,1,0,"recog_trial","SS5",1,1,4,"pet store.png","rand",5,1,3,"ostrichA.png","lure"
"14/07/2021 19:55:34","14/07/2021 15:55:35",56975,3,4265819,"60d5d29541e3a5a148be906c","Chrome 91.0.4472.124","recognition",3,"SS5",74,718.39999999851,"def_new","new","high","old",1,0,0,"recog_trial","SS5",7,4,2,"pet store.png","rand",3,1,3,"frogB.png","target"
"14/07/2021 19:55:36","14/07/2021 15:55:36",56975,3,4265819,"60d5d29541e3a5a148be906c","Chrome 91.0.4472.124","recognition",3,"SS5",75,714.60000000149,"def_new","new","high","new",1,1,0,"recog_trial","SS5",3,2,4,"grocery store.png","pred",1,1,3,"waffleA.png","lure"
"14/07/2021 19:55:38","14/07/2021 15:55:38",56975,3,4265819,"60d5d29541e3a5a148be906c","Chrome 91.0.4472.124","recognition",3,"SS5",76,841.79999999702,"def_old","old","high","old",1,1,0,"recog_trial","SS5",6,3,2,"grocery store.png","pred",6,3,3,"nachosB.png","target"
"14/07/2021 19:55:40","14/07/2021 15:55:40",56975,3,4265819,"60d5d29541e3a5a148be906c","Chrome 91.0.4472.124","recognition",3,"SS5",77,1115.5,"def_new","new","high","new",1,1,0,"recog_trial","SS5",8,4,3,"grocery store.png","pred",6,3,3,"poutineA.png","lure"
"14/07/2021 19:55:47","14/07/2021 15:55:48",56975,3,4265819,"60d5d29541e3a5a148be906c","Chrome 91.0.4472.124","recognition",3,"SS5",79,975,"def_new","new","high","old",1,0,0,"recog_trial","SS5",1,1,4,"pet store.png","rand",1,3,4,"mantisB.png","target"
"14/07/2021 19:55:49","14/07/2021 15:55:50",56975,3,4265819,"60d5d29541e3a5a148be906c","Chrome 91.0.4472.124","recognition",3,"SS5",80,1069.80000000075,"def_old","old","high","old",1,1,0,"recog_trial","SS5",4,2,2,"pet store.png","rand",3,3,4,"platypusB.png","target"
"14/07/2021 19:55:51","14/07/2021 15:55:52",56975,3,4265819,"60d5d29541e3a5a148be906c","Chrome 91.0.4472.124","recognition",3,"SS5",81,1054.20000000298,"def_old","old","high","old",1,1,0,"recog_trial","SS5",8,4,1,"pet store.png","rand",5,4,4,"walrusB.png","target"
"14/07/2021 19:55:53","14/07/2021 15:55:54",56975,3,4265819,"60d5d29541e3a5a148be906c","Chrome 91.0.4472.124","recognition",3,"SS5",82,896.599999997765,"def_new","new","high","new",1,1,0,"recog_trial","SS5",6,3,1,"pet store.png","rand",2,1,4,"tigerA.png","lure"
"14/07/2021 19:55:55","14/07/2021 15:55:55",56975,3,4265819,"60d5d29541e3a5a148be906c","Chrome 91.0.4472.124","recognition",3,"SS5",83,709,"def_old","old","high","old",1,1,0,"recog_trial","SS5",5,3,1,"grocery store.png","pred",1,1,4,"oliveoilB.png","target"
"14/07/2021 19:55:57","14/07/2021 15:55:57",56975,3,4265819,"60d5d29541e3a5a148be906c","Chrome 91.0.4472.124","recognition",3,"SS5",84,579.60000000149,"def_new","new","high","old",1,0,0,"recog_trial","SS5",3,2,3,"pet store.png","rand",1,2,4,"parrotB.png","target"
"14/07/2021 19:55:58","14/07/2021 15:55:59",56975,3,4265819,"60d5d29541e3a5a148be906c","Chrome 91.0.4472.124","recognition",3,"SS5",85,657.900000002235,"def_new","new","high","new",1,1,0,"recog_trial","SS5",1,1,2,"grocery store.png","pred",4,4,4,"butterA.png","lure"
"14/07/2021 19:56:00","14/07/2021 15:56:01",56975,3,4265819,"60d5d29541e3a5a148be906c","Chrome 91.0.4472.124","recognition",3,"SS5",86,792.5,"def_new","new","high","new",1,1,0,"recog_trial","SS5",7,4,2,"pet store.png","rand",5,1,4,"beetleA.png","lure"
"14/07/2021 19:56:02","14/07/2021 15:56:02",56975,3,4265819,"60d5d29541e3a5a148be906c","Chrome 91.0.4472.124","recognition",3,"SS5",87,762.699999999255,"def_old","old","high","old",1,1,0,"recog_trial","SS5",7,4,1,"grocery store.png","pred",2,4,4,"dragonfruitB.png","target"
"14/07/2021 19:56:04","14/07/2021 15:56:04",56975,3,4265819,"60d5d29541e3a5a148be906c","Chrome 91.0.4472.124","recognition",3,"SS5",88,784.5,"def_new","new","high","new",1,1,0,"recog_trial","SS5",4,2,2,"pet store.png","rand",4,2,4,"dolphinA.png","lure"
"14/07/2021 19:56:05","14/07/2021 15:56:06",56975,3,4265819,"60d5d29541e3a5a148be906c","Chrome 91.0.4472.124","recognition",3,"SS5",89,771.199999999255,"def_new","new","high","new",1,1,0,"recog_trial","SS5",6,3,2,"grocery store.png","pred",1,1,4,"pretzelA.png","lure"
"14/07/2021 19:56:07","14/07/2021 15:56:08",56975,3,4265819,"60d5d29541e3a5a148be906c","Chrome 91.0.4472.124","recognition",3,"SS5",90,826.60000000149,"def_old","old","high","old",1,1,0,"recog_trial","SS5",4,2,4,"grocery store.png","pred",4,4,4,"ramenB.png","target"
"14/07/2021 19:56:10","14/07/2021 15:56:11",56975,3,4265819,"60d5d29541e3a5a148be906c","Chrome 91.0.4472.124","recognition",3,"SS5",91,2096.19999999925,"def_new","new","high","new",1,1,0,"recog_trial","SS5",8,4,1,"pet store.png","rand",3,4,4,"toadA.png","lure"
"14/07/2021 19:56:12","14/07/2021 15:56:13",56975,3,4265819,"60d5d29541e3a5a148be906c","Chrome 91.0.4472.124","recognition",3,"SS5",92,796.39999999851,"def_old","old","high","old",1,1,0,"recog_trial","SS5",5,3,3,"pet store.png","rand",1,3,4,"chameleonB.png","target"
"14/07/2021 19:56:14","14/07/2021 15:56:15",56975,3,4265819,"60d5d29541e3a5a148be906c","Chrome 91.0.4472.124","recognition",3,"SS5",93,788.70000000298,"def_old","old","high","new",1,0,0,"recog_trial","SS5",7,4,1,"grocery store.png","pred",3,3,4,"walnutsA.png","lure"
"14/07/2021 19:56:16","14/07/2021 15:56:16",56975,3,4265819,"60d5d29541e3a5a148be906c","Chrome 91.0.4472.124","recognition",3,"SS5",94,748.300000000745,"def_new","new","high","new",1,1,0,"recog_trial","SS5",1,1,4,"pet store.png","rand",4,2,4,"bisonA.png","lure"
"14/07/2021 19:56:18","14/07/2021 15:56:18",56975,3,4265819,"60d5d29541e3a5a148be906c","Chrome 91.0.4472.124","recognition",3,"SS5",95,822,"def_old","old","high","old",1,1,0,"recog_trial","SS5",6,3,2,"grocery store.png","pred",3,3,4,"smoresB.png","target"
"14/07/2021 19:56:19","14/07/2021 15:56:20",56975,3,4265819,"60d5d29541e3a5a148be906c","Chrome 91.0.4472.124","recognition",3,"SS5",96,618.300000000745,"def_new","new","high","old",1,0,0,"recog_trial","SS5",7,4,2,"pet store.png","rand",6,3,4,"killerwhaleB.png","target"
"14/07/2021 19:56:22","14/07/2021 15:56:22",56975,3,4265819,"60d5d29541e3a5a148be906c","Chrome 91.0.4472.124","recognition",3,"SS5",97,1072.10000000149,"def_new","new","high","new",1,1,0,"recog_trial","SS5",3,2,3,"pet store.png","rand",6,1,4,"batA.png","lure"
"14/07/2021 19:56:23","14/07/2021 15:56:24",56975,3,4265819,"60d5d29541e3a5a148be906c","Chrome 91.0.4472.124","recognition",3,"SS5",98,900.5,"def_new","new","high","new",1,1,0,"recog_trial","SS5",5,3,1,"grocery store.png","pred",2,4,4,"caramelappleA.png","lure"
"14/07/2021 19:56:25","14/07/2021 15:56:26",56975,3,4265819,"60d5d29541e3a5a148be906c","Chrome 91.0.4472.124","recognition",3,"SS5",99,656.5,"def_new","new","high","new",1,1,0,"recog_trial","SS5",3,2,4,"grocery store.png","pred",6,3,4,"tomatoA.png","lure"
"14/07/2021 19:56:27","14/07/2021 15:56:28",56975,3,4265819,"60d5d29541e3a5a148be906c","Chrome 91.0.4472.124","recognition",3,"SS5",100,814.699999999255,"def_new","new","high","old",1,0,0,"recog_trial","SS5",2,1,3,"grocery store.png","pred",1,1,4,"clamsB.png","target"
"14/07/2021 19:56:30","14/07/2021 15:56:30",56975,3,4265819,"60d5d29541e3a5a148be906c","Chrome 91.0.4472.124","recognition",3,"SS5",101,1853.90000000224,"def_new","new","high","new",1,1,0,"recog_trial","SS5",1,1,2,"grocery store.png","pred",6,3,4,"watermelonA.png","lure"
"14/07/2021 19:56:32","14/07/2021 15:56:32",56975,3,4265819,"60d5d29541e3a5a148be906c","Chrome 91.0.4472.124","recognition",3,"SS5",102,801.39999999851,"def_old","old","high","old",1,1,0,"recog_trial","SS5",2,1,4,"pet store.png","rand",4,1,4,"snakeB.png","target"
"14/07/2021 19:53:17","14/07/2021 14:53:25",56975,3,4265656,"5e19805e05e1512212e4789a","Firefox 89.0","recognition",3,"SS3",4,3593,"def_old","old","high","old",1,1,0,"recog_trial","SS3",4,2,3,"grocery store.png","pred",6,4,1,"peachesA.png","target"
"14/07/2021 19:53:23","14/07/2021 14:53:30",56975,3,4265656,"5e19805e05e1512212e4789a","Firefox 89.0","recognition",3,"SS3",5,4617,"maybe_new","new","low","new",1,1,0,"recog_trial","SS3",2,1,4,"grocery store.png","pred",3,4,1,"ramenB.png","lure"
"14/07/2021 19:53:25","14/07/2021 14:53:33",56975,3,4265656,"5e19805e05e1512212e4789a","Firefox 89.0","recognition",3,"SS3",6,1532,"def_old","old","high","new",1,0,0,"recog_trial","SS3",2,1,4,"grocery store.png","pred",6,4,1,"honeycombB.png","lure"
"14/07/2021 19:53:29","14/07/2021 14:53:36",56975,3,4265656,"5e19805e05e1512212e4789a","Firefox 89.0","recognition",3,"SS3",7,2175,"def_new","new","high","new",1,1,0,"recog_trial","SS3",8,4,3,"grocery store.png","pred",6,4,1,"grapesB.png","lure"
"14/07/2021 19:53:32","14/07/2021 14:53:39",56975,3,4265656,"5e19805e05e1512212e4789a","Firefox 89.0","recognition",3,"SS3",8,2052,"def_new","new","high","new",1,1,0,"recog_trial","SS3",5,3,4,"grocery store.png","pred",1,3,1,"celeryB.png","lure"
"14/07/2021 19:53:34","14/07/2021 14:53:42",56975,3,4265656,"5e19805e05e1512212e4789a","Firefox 89.0","recognition",3,"SS3",9,1449,"def_new","new","high","new",1,1,0,"recog_trial","SS3",3,2,2,"grocery store.png","pred",2,2,1,"lemonB.png","lure"
"14/07/2021 19:53:36","14/07/2021 14:53:44",56975,3,4265656,"5e19805e05e1512212e4789a","Firefox 89.0","recognition",3,"SS3",10,1349,"def_old","old","high","new",1,0,0,"recog_trial","SS3",3,2,4,"pet store.png","rand",6,3,1,"squidB.png","lure"
"14/07/2021 19:53:39","14/07/2021 14:53:46",56975,3,4265656,"5e19805e05e1512212e4789a","Firefox 89.0","recognition",3,"SS3",11,1153,"def_old","old","high","old",1,1,0,"recog_trial","SS3",8,4,1,"pet store.png","rand",3,3,1,"crowA.png","target"
"14/07/2021 19:53:41","14/07/2021 14:53:49",56975,3,4265656,"5e19805e05e1512212e4789a","Firefox 89.0","recognition",3,"SS3",12,1736,"def_new","new","high","new",1,1,0,"recog_trial","SS3",3,2,2,"grocery store.png","pred",6,4,1,"potatochipsB.png","lure"
"14/07/2021 19:53:44","14/07/2021 14:53:51",56975,3,4265656,"5e19805e05e1512212e4789a","Firefox 89.0","recognition",3,"SS3",13,1501,"def_new","new","high","new",1,1,0,"recog_trial","SS3",7,4,1,"grocery store.png","pred",1,3,1,"smoresB.png","lure"
"14/07/2021 19:53:47","14/07/2021 14:53:55",56975,3,4265656,"5e19805e05e1512212e4789a","Firefox 89.0","recognition",3,"SS3",14,2434,"maybe_old","old","low","new",1,0,0,"recog_trial","SS3",5,3,2,"pet store.png","rand",4,3,1,"camelB.png","lure"
"14/07/2021 19:53:50","14/07/2021 14:53:58",56975,3,4265656,"5e19805e05e1512212e4789a","Firefox 89.0","recognition",3,"SS3",15,1672,"def_old","old","high","old",1,1,0,"recog_trial","SS3",1,1,1,"grocery store.png","pred",3,4,1,"popcornshrimpA.png","target"
"14/07/2021 19:53:52","14/07/2021 14:54:00",56975,3,4265656,"5e19805e05e1512212e4789a","Firefox 89.0","recognition",3,"SS3",16,1223,"def_old","old","high","old",1,1,0,"recog_trial","SS3",6,3,1,"pet store.png","rand",2,4,1,"vultureA.png","target"
"14/07/2021 19:53:55","14/07/2021 14:54:03",56975,3,4265656,"5e19805e05e1512212e4789a","Firefox 89.0","recognition",3,"SS3",17,1892,"def_old","old","high","old",1,1,0,"recog_trial","SS3",2,1,4,"grocery store.png","pred",4,2,1,"cookiesA.png","target"
"14/07/2021 19:53:58","14/07/2021 14:54:05",56975,3,4265656,"5e19805e05e1512212e4789a","Firefox 89.0","recognition",3,"SS3",18,1595,"def_old","old","high","old",1,1,0,"recog_trial","SS3",3,2,2,"grocery store.png","pred",1,3,1,"tomatoA.png","target"
"14/07/2021 19:54:01","14/07/2021 14:54:08",56975,3,4265656,"5e19805e05e1512212e4789a","Firefox 89.0","recognition",3,"SS3",19,1988,"def_new","new","high","new",1,1,0,"recog_trial","SS3",8,4,1,"pet store.png","rand",5,2,1,"mantisB.png","lure"
"14/07/2021 19:54:03","14/07/2021 14:54:11",56975,3,4265656,"5e19805e05e1512212e4789a","Firefox 89.0","recognition",3,"SS3",20,1591,"def_new","new","high","new",1,1,0,"recog_trial","SS3",5,3,4,"grocery store.png","pred",4,2,1,"jalapenoB.png","lure"
"14/07/2021 19:54:06","14/07/2021 14:54:13",56975,3,4265656,"5e19805e05e1512212e4789a","Firefox 89.0","recognition",3,"SS3",21,1306,"def_old","old","high","old",1,1,0,"recog_trial","SS3",5,3,4,"grocery store.png","pred",5,1,1,"starfruitA.png","target"
"14/07/2021 19:54:09","14/07/2021 14:54:17",56975,3,4265656,"5e19805e05e1512212e4789a","Firefox 89.0","recognition",3,"SS3",22,2402,"maybe_new","new","low","new",1,1,0,"recog_trial","SS3",2,1,3,"pet store.png","rand",3,3,1,"donkeyB.png","lure"
"14/07/2021 19:54:12","14/07/2021 14:54:19",56975,3,4265656,"5e19805e05e1512212e4789a","Firefox 89.0","recognition",3,"SS3",23,1597,"maybe_new","new","low","old",1,0,0,"recog_trial","SS3",5,3,2,"pet store.png","rand",6,1,1,"batA.png","target"
"14/07/2021 19:54:14","14/07/2021 14:54:22",56975,3,4265656,"5e19805e05e1512212e4789a","Firefox 89.0","recognition",3,"SS3",24,1372,"def_old","old","high","old",1,1,0,"recog_trial","SS3",4,2,4,"pet store.png","rand",5,3,1,"koalaA.png","target"
"14/07/2021 19:54:16","14/07/2021 14:54:24",56975,3,4265656,"5e19805e05e1512212e4789a","Firefox 89.0","recognition",3,"SS3",25,1239,"def_old","old","high","old",1,1,0,"recog_trial","SS3",7,4,1,"grocery store.png","pred",6,4,1,"pizzaA.png","target"
"14/07/2021 19:54:20","14/07/2021 14:54:27",56975,3,4265656,"5e19805e05e1512212e4789a","Firefox 89.0","recognition",3,"SS3",26,2517,"maybe_new","new","low","old",1,0,0,"recog_trial","SS3",8,4,1,"pet store.png","rand",2,2,1,"hippoA.png","target"
"14/07/2021 19:54:24","14/07/2021 14:54:31",56975,3,4265656,"5e19805e05e1512212e4789a","Firefox 89.0","recognition",3,"SS3",27,2835,"maybe_old","old","low","old",1,1,0,"recog_trial","SS3",1,1,2,"pet store.png","rand",5,1,1,"wolfA.png","target"
"14/07/2021 19:54:32","14/07/2021 14:54:40",56975,3,4265656,"5e19805e05e1512212e4789a","Firefox 89.0","recognition",3,"SS3",29,2857,"def_new","new","high","new",1,1,0,"recog_trial","SS3",3,2,2,"grocery store.png","pred",3,4,2,"cherriesB.png","lure"
"14/07/2021 19:54:37","14/07/2021 14:54:44",56975,3,4265656,"5e19805e05e1512212e4789a","Firefox 89.0","recognition",3,"SS3",30,3762,"maybe_new","new","low","new",1,1,0,"recog_trial","SS3",6,3,2,"grocery store.png","pred",3,4,2,"cinnamonB.png","lure"
"14/07/2021 19:54:40","14/07/2021 14:54:47",56975,3,4265656,"5e19805e05e1512212e4789a","Firefox 89.0","recognition",3,"SS3",31,1940,"def_new","new","high","old",1,0,0,"recog_trial","SS3",2,1,3,"pet store.png","rand",4,4,2,"hermitcrabA.png","target"
"14/07/2021 19:54:44","14/07/2021 14:54:52",56975,3,4265656,"5e19805e05e1512212e4789a","Firefox 89.0","recognition",3,"SS3",32,3227,"def_old","old","high","old",1,1,0,"recog_trial","SS3",7,4,1,"grocery store.png","pred",4,2,2,"chocolatemilkA.png","target"
"14/07/2021 19:54:48","14/07/2021 14:54:56",56975,3,4265656,"5e19805e05e1512212e4789a","Firefox 89.0","recognition",3,"SS3",33,3258,"maybe_old","old","low","old",1,1,0,"recog_trial","SS3",6,3,2,"grocery store.png","pred",4,2,2,"watermelonA.png","target"
"14/07/2021 19:54:51","14/07/2021 14:54:58",56975,3,4265656,"5e19805e05e1512212e4789a","Firefox 89.0","recognition",3,"SS3",34,1508,"def_old","old","high","old",1,1,0,"recog_trial","SS3",7,4,1,"grocery store.png","pred",3,4,2,"seaweedA.png","target"
"14/07/2021 19:54:54","14/07/2021 14:55:01",56975,3,4265656,"5e19805e05e1512212e4789a","Firefox 89.0","recognition",3,"SS3",35,1984,"maybe_new","new","low","old",1,0,0,"recog_trial","SS3",1,1,1,"grocery store.png","pred",2,2,2,"orangeA.png","target"
"14/07/2021 19:54:57","14/07/2021 14:55:04",56975,3,4265656,"5e19805e05e1512212e4789a","Firefox 89.0","recognition",3,"SS3",36,1918,"def_old","old","high","old",1,1,0,"recog_trial","SS3",4,2,4,"pet store.png","rand",4,4,2,"manateeA.png","target"
"14/07/2021 19:55:00","14/07/2021 14:55:07",56975,3,4265656,"5e19805e05e1512212e4789a","Firefox 89.0","recognition",3,"SS3",37,2066,"maybe_old","old","low","old",1,1,0,"recog_trial","SS3",8,4,1,"pet store.png","rand",1,4,2,"cuttlefishA.png","target"
"14/07/2021 19:55:02","14/07/2021 14:55:10",56975,3,4265656,"5e19805e05e1512212e4789a","Firefox 89.0","recognition",3,"SS3",38,1277,"def_old","old","high","old",1,1,0,"recog_trial","SS3",2,1,4,"grocery store.png","pred",1,3,2,"cakeA.png","target"
"14/07/2021 19:55:04","14/07/2021 14:55:12",56975,3,4265656,"5e19805e05e1512212e4789a","Firefox 89.0","recognition",3,"SS3",39,1201,"def_old","old","high","old",1,1,0,"recog_trial","SS3",4,2,4,"pet store.png","rand",6,1,2,"polarbearA.png","target"
"14/07/2021 19:55:07","14/07/2021 14:55:15",56975,3,4265656,"5e19805e05e1512212e4789a","Firefox 89.0","recognition",3,"SS3",40,1869,"def_old","old","high","new",1,0,0,"recog_trial","SS3",7,4,3,"pet store.png","rand",3,2,2,"pugB.png","lure"
"14/07/2021 19:55:10","14/07/2021 14:55:18",56975,3,4265656,"5e19805e05e1512212e4789a","Firefox 89.0","recognition",3,"SS3",41,2203,"def_new","new","high","new",1,1,0,"recog_trial","SS3",1,1,2,"pet store.png","rand",1,2,2,"sheepB.png","lure"
"14/07/2021 19:55:13","14/07/2021 14:55:21",56975,3,4265656,"5e19805e05e1512212e4789a","Firefox 89.0","recognition",3,"SS3",42,1631,"def_old","old","high","old",1,1,0,"recog_trial","SS3",5,3,4,"grocery store.png","pred",6,4,2,"caramelappleA.png","target"
"14/07/2021 19:55:16","14/07/2021 14:55:24",56975,3,4265656,"5e19805e05e1512212e4789a","Firefox 89.0","recognition",3,"SS3",43,2067,"maybe_old","old","low","new",1,0,0,"recog_trial","SS3",4,2,3,"grocery store.png","pred",1,3,2,"cupcakeB.png","lure"
"14/07/2021 19:55:19","14/07/2021 14:55:26",56975,3,4265656,"5e19805e05e1512212e4789a","Firefox 89.0","recognition",3,"SS3",44,1698,"def_old","old","high","new",1,0,0,"recog_trial","SS3",1,1,1,"grocery store.png","pred",1,3,2,"cupnoodleB.png","lure"
"14/07/2021 19:55:21","14/07/2021 14:55:29",56975,3,4265656,"5e19805e05e1512212e4789a","Firefox 89.0","recognition",3,"SS3",45,1619,"maybe_new","new","low","new",1,1,0,"recog_trial","SS3",2,1,3,"pet store.png","rand",6,4,2,"platypusB.png","lure"
"14/07/2021 19:55:24","14/07/2021 14:55:32",56975,3,4265656,"5e19805e05e1512212e4789a","Firefox 89.0","recognition",3,"SS3",46,1554,"def_old","old","high","old",1,1,0,"recog_trial","SS3",5,3,4,"grocery store.png","pred",3,4,2,"guavaA.png","target"
"14/07/2021 19:55:26","14/07/2021 14:55:34",56975,3,4265656,"5e19805e05e1512212e4789a","Firefox 89.0","recognition",3,"SS3",47,1299,"def_old","old","high","new",1,0,0,"recog_trial","SS3",6,3,1,"pet store.png","rand",6,3,2,"crabB.png","lure"
"14/07/2021 19:55:29","14/07/2021 14:55:37",56975,3,4265656,"5e19805e05e1512212e4789a","Firefox 89.0","recognition",3,"SS3",48,2082,"maybe_new","new","low","new",1,1,0,"recog_trial","SS3",4,2,3,"grocery store.png","pred",5,1,2,"icecreamsandwichB.png","lure"
"14/07/2021 19:55:33","14/07/2021 14:55:40",56975,3,4265656,"5e19805e05e1512212e4789a","Firefox 89.0","recognition",3,"SS3",49,2176,"def_old","old","high","old",1,1,0,"recog_trial","SS3",4,2,4,"pet store.png","rand",1,2,2,"turtleA.png","target"
"14/07/2021 19:55:36","14/07/2021 14:55:43",56975,3,4265656,"5e19805e05e1512212e4789a","Firefox 89.0","recognition",3,"SS3",50,1942,"def_new","new","high","new",1,1,0,"recog_trial","SS3",6,3,2,"grocery store.png","pred",6,4,2,"hummusB.png","lure"
"14/07/2021 19:55:40","14/07/2021 14:55:47",56975,3,4265656,"5e19805e05e1512212e4789a","Firefox 89.0","recognition",3,"SS3",51,3006,"maybe_old","old","low","new",1,0,0,"recog_trial","SS3",7,4,3,"pet store.png","rand",2,3,2,"cardinalB.png","lure"
"14/07/2021 19:55:42","14/07/2021 14:55:50",56975,3,4265656,"5e19805e05e1512212e4789a","Firefox 89.0","recognition",3,"SS3",52,1823,"maybe_new","new","low","new",1,1,0,"recog_trial","SS3",7,4,3,"pet store.png","rand",1,1,2,"tigerB.png","lure"
"14/07/2021 19:56:52","14/07/2021 14:57:00",56975,3,4265656,"5e19805e05e1512212e4789a","Firefox 89.0","recognition",3,"SS3",54,5597,"maybe_old","old","low","new",1,0,0,"recog_trial","SS3",6,3,2,"grocery store.png","pred",5,1,3,"raspberriesB.png","lure"
"14/07/2021 19:56:57","14/07/2021 14:57:04",56975,3,4265656,"5e19805e05e1512212e4789a","Firefox 89.0","recognition",3,"SS3",55,3707,"maybe_new","new","low","old",1,0,0,"recog_trial","SS3",1,1,2,"pet store.png","rand",6,4,3,"killerwhaleA.png","target"
"14/07/2021 19:56:59","14/07/2021 14:57:07",56975,3,4265656,"5e19805e05e1512212e4789a","Firefox 89.0","recognition",3,"SS3",56,1549,"def_old","old","high","old",1,1,0,"recog_trial","SS3",6,3,1,"pet store.png","rand",4,3,3,"iguanaA.png","target"
"14/07/2021 19:57:02","14/07/2021 14:57:10",56975,3,4265656,"5e19805e05e1512212e4789a","Firefox 89.0","recognition",3,"SS3",57,1995,"maybe_new","new","low","new",1,1,0,"recog_trial","SS3",2,1,3,"pet store.png","rand",5,1,3,"frogB.png","lure"
"14/07/2021 19:57:04","14/07/2021 14:57:12",56975,3,4265656,"5e19805e05e1512212e4789a","Firefox 89.0","recognition",3,"SS3",58,1180,"def_old","old","high","old",1,1,0,"recog_trial","SS3",7,4,3,"pet store.png","rand",5,2,3,"squirrelA.png","target"
"14/07/2021 19:57:07","14/07/2021 14:57:14",56975,3,4265656,"5e19805e05e1512212e4789a","Firefox 89.0","recognition",3,"SS3",59,1270,"def_old","old","high","old",1,1,0,"recog_trial","SS3",8,4,3,"grocery store.png","pred",5,1,3,"croissantA.png","target"
"14/07/2021 19:57:10","14/07/2021 14:57:17",56975,3,4265656,"5e19805e05e1512212e4789a","Firefox 89.0","recognition",3,"SS3",60,2019,"maybe_old","old","low","old",1,1,0,"recog_trial","SS3",4,2,3,"grocery store.png","pred",2,2,3,"tacoA.png","target"
"14/07/2021 19:57:14","14/07/2021 14:57:22",56975,3,4265656,"5e19805e05e1512212e4789a","Firefox 89.0","recognition",3,"SS3",61,3477,"maybe_new","new","low","new",1,1,0,"recog_trial","SS3",2,1,4,"grocery store.png","pred",5,1,3,"blackpepperB.png","lure"
"14/07/2021 19:57:17","14/07/2021 14:57:24",56975,3,4265656,"5e19805e05e1512212e4789a","Firefox 89.0","recognition",3,"SS3",62,1329,"maybe_new","new","low","new",1,1,0,"recog_trial","SS3",3,2,4,"pet store.png","rand",4,3,3,"lionB.png","lure"
"14/07/2021 19:57:20","14/07/2021 14:57:27",56975,3,4265656,"5e19805e05e1512212e4789a","Firefox 89.0","recognition",3,"SS3",63,1905,"maybe_old","old","low","new",1,0,0,"recog_trial","SS3",7,4,3,"pet store.png","rand",6,3,3,"owlB.png","lure"
"14/07/2021 19:57:23","14/07/2021 14:57:31",56975,3,4265656,"5e19805e05e1512212e4789a","Firefox 89.0","recognition",3,"SS3",64,2429,"def_old","old","high","old",1,1,0,"recog_trial","SS3",8,4,1,"pet store.png","rand",6,1,3,"badgerA.png","target"
"14/07/2021 19:57:26","14/07/2021 14:57:33",56975,3,4265656,"5e19805e05e1512212e4789a","Firefox 89.0","recognition",3,"SS3",65,1570,"def_old","old","high","new",1,0,0,"recog_trial","SS3",6,3,1,"pet store.png","rand",1,2,3,"gooseB.png","lure"
"14/07/2021 19:57:27","14/07/2021 14:57:35",56975,3,4265656,"5e19805e05e1512212e4789a","Firefox 89.0","recognition",3,"SS3",66,875,"def_old","old","high","old",1,1,0,"recog_trial","SS3",1,1,1,"grocery store.png","pred",5,1,3,"pretzelA.png","target"
"14/07/2021 19:57:31","14/07/2021 14:57:39",56975,3,4265656,"5e19805e05e1512212e4789a","Firefox 89.0","recognition",3,"SS3",67,2481,"maybe_new","new","low","new",1,1,0,"recog_trial","SS3",2,1,4,"grocery store.png","pred",2,2,3,"eggB.png","lure"
"14/07/2021 19:57:34","14/07/2021 14:57:42",56975,3,4265656,"5e19805e05e1512212e4789a","Firefox 89.0","recognition",3,"SS3",68,2513,"maybe_old","old","low","old",1,1,0,"recog_trial","SS3",3,2,2,"grocery store.png","pred",5,1,3,"cerealA.png","target"
"14/07/2021 19:57:37","14/07/2021 14:57:44",56975,3,4265656,"5e19805e05e1512212e4789a","Firefox 89.0","recognition",3,"SS3",69,1370,"maybe_old","old","low","old",1,1,0,"recog_trial","SS3",6,3,1,"pet store.png","rand",3,1,3,"pigA.png","target"
"14/07/2021 19:57:40","14/07/2021 14:57:48",56975,3,4265656,"5e19805e05e1512212e4789a","Firefox 89.0","recognition",3,"SS3",70,2126,"def_old","old","high","new",1,0,0,"recog_trial","SS3",3,2,4,"pet store.png","rand",1,4,3,"pandaB.png","lure"
"14/07/2021 19:57:42","14/07/2021 14:57:50",56975,3,4265656,"5e19805e05e1512212e4789a","Firefox 89.0","recognition",3,"SS3",71,1374,"def_old","old","high","old",1,1,0,"recog_trial","SS3",4,2,3,"grocery store.png","pred",3,4,3,"avocadoA.png","target"
"14/07/2021 19:57:46","14/07/2021 14:57:54",56975,3,4265656,"5e19805e05e1512212e4789a","Firefox 89.0","recognition",3,"SS3",72,2791,"def_new","new","high","new",1,1,0,"recog_trial","SS3",5,3,4,"grocery store.png","pred",2,2,3,"poutineB.png","lure"
"14/07/2021 19:57:49","14/07/2021 14:57:57",56975,3,4265656,"5e19805e05e1512212e4789a","Firefox 89.0","recognition",3,"SS3",73,1795,"maybe_old","old","low","old",1,1,0,"recog_trial","SS3",5,3,2,"pet store.png","rand",1,2,3,"ladybugA.png","target"
"14/07/2021 19:57:52","14/07/2021 14:58:00",56975,3,4265656,"5e19805e05e1512212e4789a","Firefox 89.0","recognition",3,"SS3",74,2296,"maybe_old","old","low","new",1,0,0,"recog_trial","SS3",8,4,3,"grocery store.png","pred",3,4,3,"gummybearsB.png","lure"
"14/07/2021 19:57:56","14/07/2021 14:58:04",56975,3,4265656,"5e19805e05e1512212e4789a","Firefox 89.0","recognition",3,"SS3",75,2583,"maybe_new","new","low","old",1,0,0,"recog_trial","SS3",1,1,1,"grocery store.png","pred",6,4,3,"bakedpotatoA.png","target"
"14/07/2021 19:57:59","14/07/2021 14:58:07",56975,3,4265656,"5e19805e05e1512212e4789a","Firefox 89.0","recognition",3,"SS3",76,2343,"maybe_old","old","low","new",1,0,0,"recog_trial","SS3",8,4,1,"pet store.png","rand",4,1,3,"emuB.png","lure"
"14/07/2021 19:58:04","14/07/2021 14:58:12",56975,3,4265656,"5e19805e05e1512212e4789a","Firefox 89.0","recognition",3,"SS3",77,3777,"maybe_old","old","low","new",1,0,0,"recog_trial","SS3",3,2,4,"pet store.png","rand",5,2,3,"chickenB.png","lure"
"14/07/2021 19:58:10","14/07/2021 14:58:18",56975,3,4265656,"5e19805e05e1512212e4789a","Firefox 89.0","recognition",3,"SS3",79,2400,"maybe_new","new","low","new",1,1,0,"recog_trial","SS3",7,4,1,"grocery store.png","pred",5,1,4,"cantaloupeB.png","lure"
"14/07/2021 19:58:13","14/07/2021 14:58:20",56975,3,4265656,"5e19805e05e1512212e4789a","Firefox 89.0","recognition",3,"SS3",80,1275,"maybe_new","new","low","old",1,0,0,"recog_trial","SS3",3,2,4,"pet store.png","rand",3,1,4,"chameleonA.png","target"
"14/07/2021 19:58:16","14/07/2021 14:58:23",56975,3,4265656,"5e19805e05e1512212e4789a","Firefox 89.0","recognition",3,"SS3",81,2026,"maybe_old","old","low","new",1,0,0,"recog_trial","SS3",8,4,3,"grocery store.png","pred",2,2,4,"saladB.png","lure"
"14/07/2021 19:58:19","14/07/2021 14:58:26",56975,3,4265656,"5e19805e05e1512212e4789a","Firefox 89.0","recognition",3,"SS3",82,2151,"maybe_old","old","low","old",1,1,0,"recog_trial","SS3",7,4,3,"pet store.png","rand",4,4,4,"ostrichA.png","target"
"14/07/2021 19:58:22","14/07/2021 14:58:29",56975,3,4265656,"5e19805e05e1512212e4789a","Firefox 89.0","recognition",3,"SS3",83,1860,"maybe_new","new","low","new",1,1,0,"recog_trial","SS3",3,2,4,"pet store.png","rand",2,2,4,"pelicanB.png","lure"
"14/07/2021 19:58:25","14/07/2021 14:58:32",56975,3,4265656,"5e19805e05e1512212e4789a","Firefox 89.0","recognition",3,"SS3",84,1909,"def_old","old","high","old",1,1,0,"recog_trial","SS3",4,2,3,"grocery store.png","pred",4,2,4,"granolaA.png","target"
"14/07/2021 19:58:27","14/07/2021 14:58:35",56975,3,4265656,"5e19805e05e1512212e4789a","Firefox 89.0","recognition",3,"SS3",85,1941,"def_new","new","high","new",1,1,0,"recog_trial","SS3",5,3,2,"pet store.png","rand",5,4,4,"grasshopperB.png","lure"
"14/07/2021 19:58:32","14/07/2021 14:58:39",56975,3,4265656,"5e19805e05e1512212e4789a","Firefox 89.0","recognition",3,"SS3",86,3215,"maybe_old","old","low","new",1,0,0,"recog_trial","SS3",1,1,1,"grocery store.png","pred",4,2,4,"basilB.png","lure"
"14/07/2021 19:58:35","14/07/2021 14:58:42",56975,3,4265656,"5e19805e05e1512212e4789a","Firefox 89.0","recognition",3,"SS3",87,1999,"def_old","old","high","old",1,1,0,"recog_trial","SS3",6,3,2,"grocery store.png","pred",1,3,4,"riceA.png","target"
"14/07/2021 19:58:38","14/07/2021 14:58:46",56975,3,4265656,"5e19805e05e1512212e4789a","Firefox 89.0","recognition",3,"SS3",88,2451,"maybe_old","old","low","old",1,1,0,"recog_trial","SS3",1,1,2,"pet store.png","rand",3,1,4,"pantherA.png","target"
"14/07/2021 19:58:40","14/07/2021 14:58:48",56975,3,4265656,"5e19805e05e1512212e4789a","Firefox 89.0","recognition",3,"SS3",89,1328,"maybe_new","new","low","new",1,1,0,"recog_trial","SS3",2,1,3,"pet store.png","rand",2,1,4,"seahorseB.png","lure"
"14/07/2021 19:58:43","14/07/2021 14:58:51",56975,3,4265656,"5e19805e05e1512212e4789a","Firefox 89.0","recognition",3,"SS3",90,1776,"maybe_old","old","low","new",1,0,0,"recog_trial","SS3",1,1,2,"pet store.png","rand",4,3,4,"ferretB.png","lure"
"14/07/2021 19:58:46","14/07/2021 14:58:54",56975,3,4265656,"5e19805e05e1512212e4789a","Firefox 89.0","recognition",3,"SS3",91,1794,"def_new","new","high","new",1,1,0,"recog_trial","SS3",8,4,3,"grocery store.png","pred",4,2,4,"edamameB.png","lure"
"14/07/2021 19:58:49","14/07/2021 14:58:56",56975,3,4265656,"5e19805e05e1512212e4789a","Firefox 89.0","recognition",3,"SS3",92,1663,"def_old","old","high","old",1,1,0,"recog_trial","SS3",6,3,1,"pet store.png","rand",5,4,4,"surgeonfishA.png","target"
"14/07/2021 19:58:51","14/07/2021 14:58:59",56975,3,4265656,"5e19805e05e1512212e4789a","Firefox 89.0","recognition",3,"SS3",93,1406,"def_old","old","high","old",1,1,0,"recog_trial","SS3",8,4,3,"grocery store.png","pred",1,3,4,"bagelA.png","target"
"14/07/2021 19:58:55","14/07/2021 14:59:02",56975,3,4265656,"5e19805e05e1512212e4789a","Firefox 89.0","recognition",3,"SS3",94,2442,"def_old","old","high","old",1,1,0,"recog_trial","SS3",6,3,2,"grocery store.png","pred",2,2,4,"baconA.png","target"
"14/07/2021 19:58:57","14/07/2021 14:59:05",56975,3,4265656,"5e19805e05e1512212e4789a","Firefox 89.0","recognition",3,"SS3",95,1493,"def_old","old","high","old",1,1,0,"recog_trial","SS3",1,1,2,"pet store.png","rand",2,4,4,"giraffeA.png","target"
"14/07/2021 19:59:00","14/07/2021 14:59:08",56975,3,4265656,"5e19805e05e1512212e4789a","Firefox 89.0","recognition",3,"SS3",96,2102,"maybe_new","new","low","new",1,1,0,"recog_trial","SS3",3,2,2,"grocery store.png","pred",4,2,4,"kiwiB.png","lure"
"14/07/2021 19:59:03","14/07/2021 14:59:10",56975,3,4265656,"5e19805e05e1512212e4789a","Firefox 89.0","recognition",3,"SS3",97,1613,"maybe_old","old","low","new",1,0,0,"recog_trial","SS3",5,3,2,"pet store.png","rand",2,1,4,"parrotB.png","lure"
"14/07/2021 19:59:05","14/07/2021 14:59:13",56975,3,4265656,"5e19805e05e1512212e4789a","Firefox 89.0","recognition",3,"SS3",98,1183,"def_old","old","high","old",1,1,0,"recog_trial","SS3",7,4,1,"grocery store.png","pred",2,2,4,"acaibowlA.png","target"
"14/07/2021 19:59:08","14/07/2021 14:59:16",56975,3,4265656,"5e19805e05e1512212e4789a","Firefox 89.0","recognition",3,"SS3",99,1958,"def_new","new","high","new",1,1,0,"recog_trial","SS3",4,2,4,"pet store.png","rand",3,3,4,"llamaB.png","lure"
"14/07/2021 19:59:13","14/07/2021 14:59:20",56975,3,4265656,"5e19805e05e1512212e4789a","Firefox 89.0","recognition",3,"SS3",100,3776,"maybe_old","old","low","new",1,0,0,"recog_trial","SS3",5,3,2,"pet store.png","rand",3,4,4,"whaleB.png","lure"
"14/07/2021 19:59:15","14/07/2021 14:59:23",56975,3,4265656,"5e19805e05e1512212e4789a","Firefox 89.0","recognition",3,"SS3",101,1501,"def_old","old","high","old",1,1,0,"recog_trial","SS3",2,1,3,"pet store.png","rand",1,2,4,"chimpA.png","target"
"14/07/2021 19:59:18","14/07/2021 14:59:26",56975,3,4265656,"5e19805e05e1512212e4789a","Firefox 89.0","recognition",3,"SS3",102,1620,"def_old","old","high","old",1,1,0,"recog_trial","SS3",4,2,4,"pet store.png","rand",2,1,4,"rhinoA.png","target"
"19/07/2021 20:02:15","19/07/2021 16:02:14",56975,3,4297908,"5c1c157f77936700018284b7","Chrome 91.0.4472.147","recognition",3,"SS6",4,2020.59999999404,"def_new","new","high","new",1,1,0,"recog_trial","SS6",2,1,4,"grocery store.png","rand",1,3,1,"tomatoA.png","lure"
"19/07/2021 20:02:18","19/07/2021 16:02:18",56975,3,4297908,"5c1c157f77936700018284b7","Chrome 91.0.4472.147","recognition",3,"SS6",5,2654.10000000894,"maybe_new","new","low","old",1,0,0,"recog_trial","SS6",7,4,3,"pet store.png","pred",5,2,1,"donkeyB.png","target"
"19/07/2021 20:02:21","19/07/2021 16:02:21",56975,3,4297908,"5c1c157f77936700018284b7","Chrome 91.0.4472.147","recognition",3,"SS6",6,1487.5,"def_new","new","high","new",1,1,0,"recog_trial","SS6",6,3,2,"grocery store.png","rand",5,4,1,"mushroomsA.png","lure"
"19/07/2021 20:02:24","19/07/2021 16:02:23",56975,3,4297908,"5c1c157f77936700018284b7","Chrome 91.0.4472.147","recognition",3,"SS6",7,1371.89999999106,"def_new","new","high","new",1,1,0,"recog_trial","SS6",7,4,4,"grocery store.png","rand",1,2,1,"onionA.png","lure"
"19/07/2021 20:02:26","19/07/2021 16:02:25",56975,3,4297908,"5c1c157f77936700018284b7","Chrome 91.0.4472.147","recognition",3,"SS6",8,1302.70000000298,"def_old","old","high","old",1,1,0,"recog_trial","SS6",8,4,3,"grocery store.png","rand",1,3,1,"bagelB.png","target"
"19/07/2021 20:02:29","19/07/2021 16:02:29",56975,3,4297908,"5c1c157f77936700018284b7","Chrome 91.0.4472.147","recognition",3,"SS6",9,2445.70000000298,"def_new","new","high","new",1,1,0,"recog_trial","SS6",3,2,1,"grocery store.png","rand",1,4,1,"eggA.png","lure"
"19/07/2021 20:02:34","19/07/2021 16:02:33",56975,3,4297908,"5c1c157f77936700018284b7","Chrome 91.0.4472.147","recognition",3,"SS6",10,3106.70000000298,"def_new","new","high","new",1,1,0,"recog_trial","SS6",4,2,1,"pet store.png","pred",4,4,1,"mantisA.png","lure"
"19/07/2021 20:02:36","19/07/2021 16:02:35",56975,3,4297908,"5c1c157f77936700018284b7","Chrome 91.0.4472.147","recognition",3,"SS6",11,1239.89999999106,"def_new","new","high","old",1,0,0,"recog_trial","SS6",5,3,2,"grocery store.png","rand",2,1,1,"popcornB.png","target"
"19/07/2021 20:02:38","19/07/2021 16:02:38",56975,3,4297908,"5c1c157f77936700018284b7","Chrome 91.0.4472.147","recognition",3,"SS6",12,1132.89999999106,"def_new","new","high","old",1,0,0,"recog_trial","SS6",4,2,3,"grocery store.png","rand",2,4,1,"coconutB.png","target"
"19/07/2021 20:02:40","19/07/2021 16:02:40",56975,3,4297908,"5c1c157f77936700018284b7","Chrome 91.0.4472.147","recognition",3,"SS6",13,1467.30000001192,"def_new","new","high","new",1,1,0,"recog_trial","SS6",5,3,4,"pet store.png","pred",6,3,1,"platypusA.png","lure"
"19/07/2021 20:02:44","19/07/2021 16:02:44",56975,3,4297908,"5c1c157f77936700018284b7","Chrome 91.0.4472.147","recognition",3,"SS6",14,2322.69999998808,"def_new","new","high","old",1,0,0,"recog_trial","SS6",4,2,1,"pet store.png","pred",6,3,1,"iguanaB.png","target"
"19/07/2021 20:02:46","19/07/2021 16:02:46",56975,3,4297908,"5c1c157f77936700018284b7","Chrome 91.0.4472.147","recognition",3,"SS6",15,1339.59999999404,"def_new","new","high","new",1,1,0,"recog_trial","SS6",8,4,4,"pet store.png","pred",5,2,1,"crowA.png","lure"
"19/07/2021 20:02:48","19/07/2021 16:02:48",56975,3,4297908,"5c1c157f77936700018284b7","Chrome 91.0.4472.147","recognition",3,"SS6",16,986.800000011921,"def_new","new","high","new",1,1,0,"recog_trial","SS6",6,3,2,"grocery store.png","rand",1,2,1,"bakedpotatoA.png","lure"
"19/07/2021 20:02:51","19/07/2021 16:02:51",56975,3,4297908,"5c1c157f77936700018284b7","Chrome 91.0.4472.147","recognition",3,"SS6",17,1499.19999998808,"def_new","new","high","old",1,0,0,"recog_trial","SS6",6,3,1,"pet store.png","pred",6,3,1,"rhinoB.png","target"
"19/07/2021 20:02:53","19/07/2021 16:02:53",56975,3,4297908,"5c1c157f77936700018284b7","Chrome 91.0.4472.147","recognition",3,"SS6",18,954.59999999404,"def_new","new","high","new",1,1,0,"recog_trial","SS6",1,1,2,"pet store.png","pred",6,3,1,"cowA.png","lure"
"19/07/2021 20:02:56","19/07/2021 16:02:56",56975,3,4297908,"5c1c157f77936700018284b7","Chrome 91.0.4472.147","recognition",3,"SS6",19,2480.20000000298,"maybe_old","old","low","new",1,0,0,"recog_trial","SS6",2,1,2,"pet store.png","pred",3,3,1,"goatA.png","lure"
"19/07/2021 20:02:59","19/07/2021 16:02:58",56975,3,4297908,"5c1c157f77936700018284b7","Chrome 91.0.4472.147","recognition",3,"SS6",20,1138.39999999106,"def_old","old","high","old",1,1,0,"recog_trial","SS6",1,1,1,"grocery store.png","rand",3,4,1,"pretzelB.png","target"
"19/07/2021 20:03:01","19/07/2021 16:03:01",56975,3,4297908,"5c1c157f77936700018284b7","Chrome 91.0.4472.147","recognition",3,"SS6",21,1619.5,"def_old","old","high","old",1,1,0,"recog_trial","SS6",3,2,1,"grocery store.png","rand",3,3,1,"porkB.png","target"
"19/07/2021 20:03:05","19/07/2021 16:03:04",56975,3,4297908,"5c1c157f77936700018284b7","Chrome 91.0.4472.147","recognition",3,"SS6",22,1986.29999999702,"def_new","new","high","new",1,1,0,"recog_trial","SS6",8,4,4,"pet store.png","pred",6,3,1,"hummingbirdA.png","lure"
"19/07/2021 20:03:07","19/07/2021 16:03:06",56975,3,4297908,"5c1c157f77936700018284b7","Chrome 91.0.4472.147","recognition",3,"SS6",23,1160.20000000298,"def_old","old","high","old",1,1,0,"recog_trial","SS6",5,3,2,"grocery store.png","rand",1,3,1,"icecreamsandwichB.png","target"
"19/07/2021 20:03:08","19/07/2021 16:03:08",56975,3,4297908,"5c1c157f77936700018284b7","Chrome 91.0.4472.147","recognition",3,"SS6",24,765.79999999702,"def_old","old","high","old",1,1,0,"recog_trial","SS6",8,4,4,"pet store.png","pred",1,1,1,"batB.png","target"
"19/07/2021 20:03:10","19/07/2021 16:03:10",56975,3,4297908,"5c1c157f77936700018284b7","Chrome 91.0.4472.147","recognition",3,"SS6",25,984.70000000298,"def_old","old","high","old",1,1,0,"recog_trial","SS6",1,1,2,"pet store.png","pred",5,2,1,"killerwhaleB.png","target"
"19/07/2021 20:03:13","19/07/2021 16:03:12",56975,3,4297908,"5c1c157f77936700018284b7","Chrome 91.0.4472.147","recognition",3,"SS6",26,1208.90000000596,"def_new","new","high","new",1,1,0,"recog_trial","SS6",4,2,3,"grocery store.png","rand",5,4,1,"pancakesA.png","lure"
"19/07/2021 20:03:15","19/07/2021 16:03:15",56975,3,4297908,"5c1c157f77936700018284b7","Chrome 91.0.4472.147","recognition",3,"SS6",27,973.90000000596,"def_new","new","high","old",1,0,0,"recog_trial","SS6",2,1,2,"pet store.png","pred",1,1,1,"squirrelB.png","target"
"19/07/2021 20:03:21","19/07/2021 16:03:21",56975,3,4297908,"5c1c157f77936700018284b7","Chrome 91.0.4472.147","recognition",3,"SS6",29,1759.5,"def_new","new","high","old",1,0,0,"recog_trial","SS6",5,3,4,"pet store.png","pred",5,2,2,"toucanB.png","target"
"19/07/2021 20:03:23","19/07/2021 16:03:23",56975,3,4297908,"5c1c157f77936700018284b7","Chrome 91.0.4472.147","recognition",3,"SS6",30,833.5,"def_new","new","high","old",1,0,0,"recog_trial","SS6",3,2,3,"pet store.png","pred",1,1,2,"parrotB.png","target"
"19/07/2021 20:03:25","19/07/2021 16:03:25",56975,3,4297908,"5c1c157f77936700018284b7","Chrome 91.0.4472.147","recognition",3,"SS6",31,1109,"def_old","old","high","old",1,1,0,"recog_trial","SS6",3,2,1,"grocery store.png","rand",5,3,2,"garlicB.png","target"
"19/07/2021 20:03:27","19/07/2021 16:03:27",56975,3,4297908,"5c1c157f77936700018284b7","Chrome 91.0.4472.147","recognition",3,"SS6",32,864.600000008941,"def_new","new","high","new",1,1,0,"recog_trial","SS6",7,4,4,"grocery store.png","rand",2,4,2,"cupcakeA.png","lure"
"19/07/2021 20:03:29","19/07/2021 16:03:29",56975,3,4297908,"5c1c157f77936700018284b7","Chrome 91.0.4472.147","recognition",3,"SS6",33,1048.5,"def_old","old","high","new",1,0,0,"recog_trial","SS6",4,2,1,"pet store.png","pred",1,1,2,"wolfA.png","lure"
"19/07/2021 20:03:31","19/07/2021 16:03:31",56975,3,4297908,"5c1c157f77936700018284b7","Chrome 91.0.4472.147","recognition",3,"SS6",34,908.100000008941,"def_new","new","high","new",1,1,0,"recog_trial","SS6",7,4,3,"pet store.png","pred",1,1,2,"boarA.png","lure"
"19/07/2021 20:03:33","19/07/2021 16:03:33",56975,3,4297908,"5c1c157f77936700018284b7","Chrome 91.0.4472.147","recognition",3,"SS6",35,821.90000000596,"def_new","new","high","new",1,1,0,"recog_trial","SS6",6,3,2,"grocery store.png","rand",2,1,2,"orangeA.png","lure"
"19/07/2021 20:03:35","19/07/2021 16:03:35",56975,3,4297908,"5c1c157f77936700018284b7","Chrome 91.0.4472.147","recognition",3,"SS6",36,937.70000000298,"def_new","new","high","old",1,0,0,"recog_trial","SS6",5,3,4,"pet store.png","pred",4,4,2,"mooseB.png","target"
"19/07/2021 20:03:37","19/07/2021 16:03:37",56975,3,4297908,"5c1c157f77936700018284b7","Chrome 91.0.4472.147","recognition",3,"SS6",37,1090.40000000596,"def_old","old","high","old",1,1,0,"recog_trial","SS6",4,2,1,"pet store.png","pred",5,2,2,"badgerB.png","target"
"19/07/2021 20:03:40","19/07/2021 16:03:40",56975,3,4297908,"5c1c157f77936700018284b7","Chrome 91.0.4472.147","recognition",3,"SS6",38,1839.70000000298,"def_new","new","high","new",1,1,0,"recog_trial","SS6",2,1,4,"grocery store.png","rand",4,1,2,"asparagusA.png","lure"
"19/07/2021 20:03:43","19/07/2021 16:03:42",56975,3,4297908,"5c1c157f77936700018284b7","Chrome 91.0.4472.147","recognition",3,"SS6",39,1423,"def_old","old","high","new",1,0,0,"recog_trial","SS6",2,1,4,"grocery store.png","rand",3,4,2,"waffleA.png","lure"
"19/07/2021 20:03:44","19/07/2021 16:03:44",56975,3,4297908,"5c1c157f77936700018284b7","Chrome 91.0.4472.147","recognition",3,"SS6",40,800.300000011921,"def_old","old","high","old",1,1,0,"recog_trial","SS6",7,4,4,"grocery store.png","rand",5,3,2,"jalapenoB.png","target"
"19/07/2021 20:03:48","19/07/2021 16:03:48",56975,3,4297908,"5c1c157f77936700018284b7","Chrome 91.0.4472.147","recognition",3,"SS6",41,2983.5,"def_new","new","high","old",1,0,0,"recog_trial","SS6",7,4,4,"grocery store.png","rand",3,3,2,"acaibowlB.png","target"
"19/07/2021 20:03:52","19/07/2021 16:03:52",56975,3,4297908,"5c1c157f77936700018284b7","Chrome 91.0.4472.147","recognition",3,"SS6",42,2259.90000000596,"def_new","new","high","old",1,0,0,"recog_trial","SS6",7,4,3,"pet store.png","pred",4,4,2,"catB.png","target"
"19/07/2021 20:03:55","19/07/2021 16:03:54",56975,3,4297908,"5c1c157f77936700018284b7","Chrome 91.0.4472.147","recognition",3,"SS6",43,1350.90000000596,"def_old","old","high","old",1,1,0,"recog_trial","SS6",1,1,1,"grocery store.png","rand",1,3,2,"sandwichB.png","target"
"19/07/2021 20:03:57","19/07/2021 16:03:56",56975,3,4297908,"5c1c157f77936700018284b7","Chrome 91.0.4472.147","recognition",3,"SS6",44,1409.40000000596,"def_new","new","high","new",1,1,0,"recog_trial","SS6",1,1,1,"grocery store.png","rand",6,2,2,"beetA.png","lure"
"19/07/2021 20:03:59","19/07/2021 16:03:59",56975,3,4297908,"5c1c157f77936700018284b7","Chrome 91.0.4472.147","recognition",3,"SS6",45,1654.5,"def_new","new","high","new",1,1,0,"recog_trial","SS6",6,3,1,"pet store.png","pred",4,4,2,"camelA.png","lure"
"19/07/2021 20:04:01","19/07/2021 16:04:01",56975,3,4297908,"5c1c157f77936700018284b7","Chrome 91.0.4472.147","recognition",3,"SS6",46,1024.20000000298,"def_old","old","high","old",1,1,0,"recog_trial","SS6",1,1,2,"pet store.png","pred",4,4,2,"tigerB.png","target"
"19/07/2021 20:04:04","19/07/2021 16:04:03",56975,3,4297908,"5c1c157f77936700018284b7","Chrome 91.0.4472.147","recognition",3,"SS6",47,1022.5,"def_new","new","high","old",1,0,0,"recog_trial","SS6",6,3,1,"pet store.png","pred",1,1,2,"pigB.png","target"
"19/07/2021 20:04:05","19/07/2021 16:04:05",56975,3,4297908,"5c1c157f77936700018284b7","Chrome 91.0.4472.147","recognition",3,"SS6",48,770,"def_new","new","high","new",1,1,0,"recog_trial","SS6",4,2,3,"grocery store.png","rand",3,3,2,"cornA.png","lure"
"19/07/2021 20:04:08","19/07/2021 16:04:07",56975,3,4297908,"5c1c157f77936700018284b7","Chrome 91.0.4472.147","recognition",3,"SS6",49,1213.29999999702,"def_new","new","high","new",1,1,0,"recog_trial","SS6",7,4,3,"pet store.png","pred",2,4,2,"lemurA.png","lure"
"19/07/2021 20:04:10","19/07/2021 16:04:09",56975,3,4297908,"5c1c157f77936700018284b7","Chrome 91.0.4472.147","recognition",3,"SS6",50,861.59999999404,"def_new","new","high","old",1,0,0,"recog_trial","SS6",1,1,2,"pet store.png","pred",2,4,2,"seahorseB.png","target"
"19/07/2021 20:04:11","19/07/2021 16:04:11",56975,3,4297908,"5c1c157f77936700018284b7","Chrome 91.0.4472.147","recognition",3,"SS6",51,800.300000011921,"def_old","old","high","new",1,0,0,"recog_trial","SS6",6,3,1,"pet store.png","pred",5,2,2,"crabA.png","lure"
"19/07/2021 20:04:15","19/07/2021 16:04:14",56975,3,4297908,"5c1c157f77936700018284b7","Chrome 91.0.4472.147","recognition",3,"SS6",52,1733.89999999106,"def_new","new","high","new",1,1,0,"recog_trial","SS6",3,2,1,"grocery store.png","rand",2,2,2,"raspberriesA.png","lure"
"19/07/2021 20:04:24","19/07/2021 16:04:23",56975,3,4297908,"5c1c157f77936700018284b7","Chrome 91.0.4472.147","recognition",3,"SS6",54,1215.79999999702,"def_new","new","high","old",1,0,0,"recog_trial","SS6",2,1,4,"grocery store.png","rand",2,1,3,"popcornshrimpB.png","target"
"19/07/2021 20:04:25","19/07/2021 16:04:25",56975,3,4297908,"5c1c157f77936700018284b7","Chrome 91.0.4472.147","recognition",3,"SS6",55,1083.10000000894,"def_old","old","high","old",1,1,0,"recog_trial","SS6",3,2,3,"pet store.png","pred",4,4,3,"pugB.png","target"
"19/07/2021 20:04:29","19/07/2021 16:04:29",56975,3,4297908,"5c1c157f77936700018284b7","Chrome 91.0.4472.147","recognition",3,"SS6",56,2542,"def_old","old","high","new",1,0,0,"recog_trial","SS6",6,3,2,"grocery store.png","rand",3,4,3,"avocadoA.png","lure"
"19/07/2021 20:04:32","19/07/2021 16:04:31",56975,3,4297908,"5c1c157f77936700018284b7","Chrome 91.0.4472.147","recognition",3,"SS6",57,1716.60000000894,"maybe_old","old","low","new",1,0,0,"recog_trial","SS6",1,1,2,"pet store.png","pred",1,1,3,"chimpA.png","lure"
"19/07/2021 20:04:36","19/07/2021 16:04:36",56975,3,4297908,"5c1c157f77936700018284b7","Chrome 91.0.4472.147","recognition",3,"SS6",58,3130.40000000596,"def_new","new","high","new",1,1,0,"recog_trial","SS6",4,2,1,"pet store.png","pred",3,3,3,"hammerheadsharkA.png","lure"
"19/07/2021 20:04:38","19/07/2021 16:04:38",56975,3,4297908,"5c1c157f77936700018284b7","Chrome 91.0.4472.147","recognition",3,"SS6",59,1108.80000001192,"def_old","old","high","old",1,1,0,"recog_trial","SS6",1,1,2,"pet store.png","pred",3,3,3,"crocodileB.png","target"
"19/07/2021 20:04:41","19/07/2021 16:04:41",56975,3,4297908,"5c1c157f77936700018284b7","Chrome 91.0.4472.147","recognition",3,"SS6",60,1694.79999999702,"def_old","old","high","new",1,0,0,"recog_trial","SS6",8,4,3,"grocery store.png","rand",4,4,3,"milkA.png","lure"
"19/07/2021 20:04:45","19/07/2021 16:04:45",56975,3,4297908,"5c1c157f77936700018284b7","Chrome 91.0.4472.147","recognition",3,"SS6",61,3121.19999998808,"def_old","old","high","new",1,0,0,"recog_trial","SS6",8,4,3,"grocery store.png","rand",5,1,3,"basilA.png","lure"
"19/07/2021 20:04:47","19/07/2021 16:04:47",56975,3,4297908,"5c1c157f77936700018284b7","Chrome 91.0.4472.147","recognition",3,"SS6",62,1177,"def_old","old","high","old",1,1,0,"recog_trial","SS6",8,4,3,"grocery store.png","rand",2,4,3,"artichokeB.png","target"
"19/07/2021 20:04:49","19/07/2021 16:04:49",56975,3,4297908,"5c1c157f77936700018284b7","Chrome 91.0.4472.147","recognition",3,"SS6",63,1114,"def_old","old","high","new",1,0,0,"recog_trial","SS6",2,1,2,"pet store.png","pred",5,2,3,"snailA.png","lure"
"19/07/2021 20:04:53","19/07/2021 16:04:53",56975,3,4297908,"5c1c157f77936700018284b7","Chrome 91.0.4472.147","recognition",3,"SS6",64,2518.5,"maybe_old","old","low","old",1,1,0,"recog_trial","SS6",8,4,3,"grocery store.png","rand",6,2,3,"breadB.png","target"
"19/07/2021 20:04:56","19/07/2021 16:04:56",56975,3,4297908,"5c1c157f77936700018284b7","Chrome 91.0.4472.147","recognition",3,"SS6",65,2366.5,"def_new","new","high","new",1,1,0,"recog_trial","SS6",5,3,4,"pet store.png","pred",1,1,3,"hermitcrabA.png","lure"
"19/07/2021 20:05:00","19/07/2021 16:05:00",56975,3,4297908,"5c1c157f77936700018284b7","Chrome 91.0.4472.147","recognition",3,"SS6",66,2228,"maybe_old","old","low","old",1,1,0,"recog_trial","SS6",2,1,4,"grocery store.png","rand",5,2,3,"broccoliB.png","target"
"19/07/2021 20:05:02","19/07/2021 16:05:02",56975,3,4297908,"5c1c157f77936700018284b7","Chrome 91.0.4472.147","recognition",3,"SS6",67,1149,"def_old","old","high","old",1,1,0,"recog_trial","SS6",7,4,4,"grocery store.png","rand",4,1,3,"lycheeB.png","target"
"19/07/2021 20:05:04","19/07/2021 16:05:04",56975,3,4297908,"5c1c157f77936700018284b7","Chrome 91.0.4472.147","recognition",3,"SS6",68,916.399999991059,"def_old","old","high","old",1,1,0,"recog_trial","SS6",4,2,1,"pet store.png","pred",2,4,3,"hippoB.png","target"
"19/07/2021 20:05:06","19/07/2021 16:05:06",56975,3,4297908,"5c1c157f77936700018284b7","Chrome 91.0.4472.147","recognition",3,"SS6",69,922.79999999702,"def_old","old","high","new",1,0,0,"recog_trial","SS6",8,4,4,"pet store.png","pred",4,4,3,"cardinalA.png","lure"
"19/07/2021 20:05:08","19/07/2021 16:05:08",56975,3,4297908,"5c1c157f77936700018284b7","Chrome 91.0.4472.147","recognition",3,"SS6",70,1005.29999999702,"def_old","old","high","old",1,1,0,"recog_trial","SS6",6,3,2,"grocery store.png","rand",6,1,3,"dragonfruitB.png","target"
"19/07/2021 20:05:13","19/07/2021 16:05:13",56975,3,4297908,"5c1c157f77936700018284b7","Chrome 91.0.4472.147","recognition",3,"SS6",71,3981.39999999106,"maybe_new","new","low","new",1,1,0,"recog_trial","SS6",3,2,3,"pet store.png","pred",5,2,3,"bettafishA.png","lure"
"19/07/2021 20:05:15","19/07/2021 16:05:15",56975,3,4297908,"5c1c157f77936700018284b7","Chrome 91.0.4472.147","recognition",3,"SS6",72,1185.40000000596,"def_old","old","high","old",1,1,0,"recog_trial","SS6",5,3,2,"grocery store.png","rand",3,2,3,"cheeseB.png","target"
"19/07/2021 20:05:18","19/07/2021 16:05:18",56975,3,4297908,"5c1c157f77936700018284b7","Chrome 91.0.4472.147","recognition",3,"SS6",73,1766.60000000894,"def_new","new","high","new",1,1,0,"recog_trial","SS6",6,3,1,"pet store.png","pred",3,3,3,"giraffeA.png","lure"
"19/07/2021 20:05:21","19/07/2021 16:05:21",56975,3,4297908,"5c1c157f77936700018284b7","Chrome 91.0.4472.147","recognition",3,"SS6",74,2164.10000000894,"def_old","old","high","old",1,1,0,"recog_trial","SS6",5,3,2,"grocery store.png","rand",5,4,3,"ravioliB.png","target"
"19/07/2021 20:05:24","19/07/2021 16:05:23",56975,3,4297908,"5c1c157f77936700018284b7","Chrome 91.0.4472.147","recognition",3,"SS6",75,1036.39999999106,"def_old","old","high","new",1,0,0,"recog_trial","SS6",2,1,2,"pet store.png","pred",4,4,3,"surgeonfishA.png","lure"
"19/07/2021 20:05:25","19/07/2021 16:05:25",56975,3,4297908,"5c1c157f77936700018284b7","Chrome 91.0.4472.147","recognition",3,"SS6",76,713.40000000596,"def_old","old","high","old",1,1,0,"recog_trial","SS6",4,2,3,"grocery store.png","rand",1,2,3,"burgerB.png","target"
"19/07/2021 20:05:27","19/07/2021 16:05:27",56975,3,4297908,"5c1c157f77936700018284b7","Chrome 91.0.4472.147","recognition",3,"SS6",77,764.100000008941,"def_old","old","high","new",1,0,0,"recog_trial","SS6",3,2,3,"pet store.png","pred",2,4,3,"ratA.png","lure"
"19/07/2021 20:05:51","19/07/2021 16:05:51",56975,3,4297908,"5c1c157f77936700018284b7","Chrome 91.0.4472.147","recognition",3,"SS6",79,2229.5,"def_new","new","high","old",1,0,0,"recog_trial","SS6",5,3,4,"pet store.png","pred",2,4,4,"pangolinB.png","target"
"19/07/2021 20:05:53","19/07/2021 16:05:53",56975,3,4297908,"5c1c157f77936700018284b7","Chrome 91.0.4472.147","recognition",3,"SS6",80,999.79999999702,"def_new","new","high","old",1,0,0,"recog_trial","SS6",7,4,3,"pet store.png","pred",6,3,4,"toadB.png","target"
"19/07/2021 20:05:56","19/07/2021 16:05:56",56975,3,4297908,"5c1c157f77936700018284b7","Chrome 91.0.4472.147","recognition",3,"SS6",81,1970.20000000298,"def_new","new","high","new",1,1,0,"recog_trial","SS6",5,3,2,"grocery store.png","rand",4,1,4,"poutineA.png","lure"
"19/07/2021 20:05:58","19/07/2021 16:05:58",56975,3,4297908,"5c1c157f77936700018284b7","Chrome 91.0.4472.147","recognition",3,"SS6",82,880.70000000298,"def_new","new","high","new",1,1,0,"recog_trial","SS6",1,1,1,"grocery store.png","rand",2,2,4,"riceA.png","lure"
"19/07/2021 20:06:00","19/07/2021 16:06:00",56975,3,4297908,"5c1c157f77936700018284b7","Chrome 91.0.4472.147","recognition",3,"SS6",83,913.399999991059,"def_old","old","high","old",1,1,0,"recog_trial","SS6",2,1,4,"grocery store.png","rand",6,4,4,"pomegranateB.png","target"
"19/07/2021 20:06:02","19/07/2021 16:06:02",56975,3,4297908,"5c1c157f77936700018284b7","Chrome 91.0.4472.147","recognition",3,"SS6",84,1313.79999999702,"def_new","new","high","new",1,1,0,"recog_trial","SS6",1,1,1,"grocery store.png","rand",5,4,4,"cinnamonA.png","lure"
"19/07/2021 20:06:05","19/07/2021 16:06:04",56975,3,4297908,"5c1c157f77936700018284b7","Chrome 91.0.4472.147","recognition",3,"SS6",85,1049.90000000596,"def_new","new","high","old",1,0,0,"recog_trial","SS6",6,3,2,"grocery store.png","rand",4,3,4,"grapesB.png","target"
"19/07/2021 20:06:07","19/07/2021 16:06:06",56975,3,4297908,"5c1c157f77936700018284b7","Chrome 91.0.4472.147","recognition",3,"SS6",86,808.09999999404,"def_old","old","high","old",1,1,0,"recog_trial","SS6",3,2,1,"grocery store.png","rand",6,2,4,"brusselsproutsB.png","target"
"19/07/2021 20:06:09","19/07/2021 16:06:09",56975,3,4297908,"5c1c157f77936700018284b7","Chrome 91.0.4472.147","recognition",3,"SS6",87,1163.20000000298,"def_new","new","high","old",1,0,0,"recog_trial","SS6",7,4,3,"pet store.png","pred",3,3,4,"flamingoB.png","target"
"19/07/2021 20:06:11","19/07/2021 16:06:11",56975,3,4297908,"5c1c157f77936700018284b7","Chrome 91.0.4472.147","recognition",3,"SS6",88,1180.79999999702,"def_old","old","high","old",1,1,0,"recog_trial","SS6",8,4,4,"pet store.png","pred",2,4,4,"ferretB.png","target"
"19/07/2021 20:06:14","19/07/2021 16:06:13",56975,3,4297908,"5c1c157f77936700018284b7","Chrome 91.0.4472.147","recognition",3,"SS6",89,1300,"def_old","old","high","new",1,0,0,"recog_trial","SS6",4,2,3,"grocery store.png","rand",4,1,4,"chocolateA.png","lure"
"19/07/2021 20:06:15","19/07/2021 16:06:15",56975,3,4297908,"5c1c157f77936700018284b7","Chrome 91.0.4472.147","recognition",3,"SS6",90,894.5,"def_old","old","high","old",1,1,0,"recog_trial","SS6",2,1,2,"pet store.png","pred",6,3,4,"cheetahB.png","target"
"19/07/2021 20:06:17","19/07/2021 16:06:17",56975,3,4297908,"5c1c157f77936700018284b7","Chrome 91.0.4472.147","recognition",3,"SS6",91,820.399999991059,"def_old","old","high","old",1,1,0,"recog_trial","SS6",3,2,1,"grocery store.png","rand",4,1,4,"honeycombB.png","target"
"19/07/2021 20:06:19","19/07/2021 16:06:19",56975,3,4297908,"5c1c157f77936700018284b7","Chrome 91.0.4472.147","recognition",3,"SS6",92,1256.90000000596,"def_new","new","high","new",1,1,0,"recog_trial","SS6",8,4,4,"pet store.png","pred",3,3,4,"squidA.png","lure"
"19/07/2021 20:06:22","19/07/2021 16:06:21",56975,3,4297908,"5c1c157f77936700018284b7","Chrome 91.0.4472.147","recognition",3,"SS6",93,955,"def_new","new","high","new",1,1,0,"recog_trial","SS6",3,2,3,"pet store.png","pred",6,3,4,"sheepA.png","lure"
"19/07/2021 20:06:24","19/07/2021 16:06:23",56975,3,4297908,"5c1c157f77936700018284b7","Chrome 91.0.4472.147","recognition",3,"SS6",94,891,"def_old","old","high","old",1,1,0,"recog_trial","SS6",1,1,1,"grocery store.png","rand",4,1,4,"caramelappleB.png","target"
"19/07/2021 20:06:25","19/07/2021 16:06:25",56975,3,4297908,"5c1c157f77936700018284b7","Chrome 91.0.4472.147","recognition",3,"SS6",95,981.40000000596,"def_new","new","high","new",1,1,0,"recog_trial","SS6",4,2,3,"grocery store.png","rand",6,1,4,"cerealA.png","lure"
"19/07/2021 20:06:28","19/07/2021 16:06:28",56975,3,4297908,"5c1c157f77936700018284b7","Chrome 91.0.4472.147","recognition",3,"SS6",96,1242.5,"def_new","new","high","new",1,1,0,"recog_trial","SS6",5,3,2,"grocery store.png","rand",6,2,4,"seaweedA.png","lure"
"19/07/2021 20:06:30","19/07/2021 16:06:29",56975,3,4297908,"5c1c157f77936700018284b7","Chrome 91.0.4472.147","recognition",3,"SS6",97,810.79999999702,"def_new","new","high","new",1,1,0,"recog_trial","SS6",8,4,3,"grocery store.png","rand",3,2,4,"mustardA.png","lure"
"19/07/2021 20:06:32","19/07/2021 16:06:31",56975,3,4297908,"5c1c157f77936700018284b7","Chrome 91.0.4472.147","recognition",3,"SS6",98,827.70000000298,"def_new","new","high","new",1,1,0,"recog_trial","SS6",7,4,4,"grocery store.png","rand",6,4,4,"fortunecookieA.png","lure"
"19/07/2021 20:06:34","19/07/2021 16:06:33",56975,3,4297908,"5c1c157f77936700018284b7","Chrome 91.0.4472.147","recognition",3,"SS6",99,948.70000000298,"def_new","new","high","new",1,1,0,"recog_trial","SS6",6,3,1,"pet store.png","pred",2,4,4,"whaleA.png","lure"
"19/07/2021 20:06:36","19/07/2021 16:06:35",56975,3,4297908,"5c1c157f77936700018284b7","Chrome 91.0.4472.147","recognition",3,"SS6",100,1040.40000000596,"def_new","new","high","new",1,1,0,"recog_trial","SS6",2,1,2,"pet store.png","pred",2,4,4,"bloodhoundA.png","lure"
"19/07/2021 20:06:38","19/07/2021 16:06:38",56975,3,4297908,"5c1c157f77936700018284b7","Chrome 91.0.4472.147","recognition",3,"SS6",101,1024,"def_old","old","high","old",1,1,0,"recog_trial","SS6",3,2,3,"pet store.png","pred",3,3,4,"tortoiseB.png","target"
"19/07/2021 20:06:40","19/07/2021 16:06:40",56975,3,4297908,"5c1c157f77936700018284b7","Chrome 91.0.4472.147","recognition",3,"SS6",102,1159.59999999404,"def_new","new","high","old",1,0,0,"recog_trial","SS6",5,3,4,"pet store.png","pred",3,3,4,"chameleonB.png","target"
"19/07/2021 20:04:55","19/07/2021 16:04:55",56975,3,4297922,"5c3272172f0f3500010284c0","Chrome 87.0.4280.88","recognition",3,"SS1",4,3051.75500002224,"def_old","old","high","new",1,0,0,"recog_trial","SS1",1,1,3,"pet store.png","rand",6,4,1,"lionB.png","lure"
"19/07/2021 20:04:57","19/07/2021 16:04:57",56975,3,4297922,"5c3272172f0f3500010284c0","Chrome 87.0.4280.88","recognition",3,"SS1",5,1235.1600000402,"def_old","old","high","new",1,0,0,"recog_trial","SS1",2,1,4,"grocery store.png","pred",6,3,1,"watermelonB.png","lure"
"19/07/2021 20:05:03","19/07/2021 16:05:02",56975,3,4297922,"5c3272172f0f3500010284c0","Chrome 87.0.4280.88","recognition",3,"SS1",6,4408.46499998588,"maybe_old","old","low","new",1,0,0,"recog_trial","SS1",4,2,4,"pet store.png","rand",4,4,1,"grasshopperB.png","lure"
"19/07/2021 20:05:07","19/07/2021 16:05:07",56975,3,4297922,"5c3272172f0f3500010284c0","Chrome 87.0.4280.88","recognition",3,"SS1",7,3457.5349999941,"def_old","old","high","old",1,1,0,"recog_trial","SS1",8,4,2,"grocery store.png","pred",1,1,1,"blackpepperA.png","target"
"19/07/2021 20:05:09","19/07/2021 16:05:09",56975,3,4297922,"5c3272172f0f3500010284c0","Chrome 87.0.4280.88","recognition",3,"SS1",8,1390.91499999631,"def_old","old","high","old",1,1,0,"recog_trial","SS1",4,2,4,"pet store.png","rand",3,2,1,"chimpA.png","target"
"19/07/2021 20:05:11","19/07/2021 16:05:11",56975,3,4297922,"5c3272172f0f3500010284c0","Chrome 87.0.4280.88","recognition",3,"SS1",9,813.249999948312,"def_old","old","high","old",1,1,0,"recog_trial","SS1",2,1,2,"pet store.png","rand",2,1,1,"elephantA.png","target"
"19/07/2021 20:05:13","19/07/2021 16:05:13",56975,3,4297922,"5c3272172f0f3500010284c0","Chrome 87.0.4280.88","recognition",3,"SS1",10,909.03999999864,"def_old","old","high","old",1,1,0,"recog_trial","SS1",7,4,3,"pet store.png","rand",4,1,1,"snakeA.png","target"
"19/07/2021 20:05:16","19/07/2021 16:05:15",56975,3,4297922,"5c3272172f0f3500010284c0","Chrome 87.0.4280.88","recognition",3,"SS1",11,1464.12000001874,"def_old","old","high","old",1,1,0,"recog_trial","SS1",5,3,4,"pet store.png","rand",4,1,1,"zebraA.png","target"
"19/07/2021 20:05:18","19/07/2021 16:05:17",56975,3,4297922,"5c3272172f0f3500010284c0","Chrome 87.0.4280.88","recognition",3,"SS1",12,958.235000027344,"def_old","old","high","old",1,1,0,"recog_trial","SS1",5,3,4,"pet store.png","rand",5,3,1,"mooseA.png","target"
"19/07/2021 20:05:20","19/07/2021 16:05:19",56975,3,4297922,"5c3272172f0f3500010284c0","Chrome 87.0.4280.88","recognition",3,"SS1",13,991.949999995995,"def_old","old","high","old",1,1,0,"recog_trial","SS1",8,4,1,"pet store.png","rand",3,2,1,"walrusA.png","target"
"19/07/2021 20:05:22","19/07/2021 16:05:22",56975,3,4297922,"5c3272172f0f3500010284c0","Chrome 87.0.4280.88","recognition",3,"SS1",14,1534.4299999997,"def_new","new","high","new",1,1,0,"recog_trial","SS1",2,1,4,"grocery store.png","pred",4,4,1,"guavaB.png","lure"
"19/07/2021 20:05:24","19/07/2021 16:05:24",56975,3,4297922,"5c3272172f0f3500010284c0","Chrome 87.0.4280.88","recognition",3,"SS1",15,1207.5349999941,"def_old","old","high","new",1,0,0,"recog_trial","SS1",8,4,1,"pet store.png","rand",4,1,1,"snailB.png","lure"
"19/07/2021 20:05:27","19/07/2021 16:05:26",56975,3,4297922,"5c3272172f0f3500010284c0","Chrome 87.0.4280.88","recognition",3,"SS1",16,1248.05500003276,"def_old","old","high","new",1,0,0,"recog_trial","SS1",6,3,1,"pet store.png","rand",3,1,1,"whaleB.png","lure"
"19/07/2021 20:05:29","19/07/2021 16:05:29",56975,3,4297922,"5c3272172f0f3500010284c0","Chrome 87.0.4280.88","recognition",3,"SS1",17,1213.04500004044,"def_old","old","high","old",1,1,0,"recog_trial","SS1",4,2,2,"grocery store.png","pred",1,1,1,"lycheeA.png","target"
"19/07/2021 20:05:31","19/07/2021 16:05:31",56975,3,4297922,"5c3272172f0f3500010284c0","Chrome 87.0.4280.88","recognition",3,"SS1",18,1125.32499997178,"def_new","new","high","old",1,0,0,"recog_trial","SS1",1,1,4,"grocery store.png","pred",1,1,1,"bellpeppersA.png","target"
"19/07/2021 20:05:33","19/07/2021 16:05:33",56975,3,4297922,"5c3272172f0f3500010284c0","Chrome 87.0.4280.88","recognition",3,"SS1",19,861.955000029411,"def_old","old","high","old",1,1,0,"recog_trial","SS1",6,3,3,"grocery store.png","pred",1,1,1,"grapesA.png","target"
"19/07/2021 20:05:35","19/07/2021 16:05:35",56975,3,4297922,"5c3272172f0f3500010284c0","Chrome 87.0.4280.88","recognition",3,"SS1",20,979.095000016969,"def_old","old","high","old",1,1,0,"recog_trial","SS1",3,2,2,"pet store.png","rand",4,2,1,"hermitcrabA.png","target"
"19/07/2021 20:05:37","19/07/2021 16:05:37",56975,3,4297922,"5c3272172f0f3500010284c0","Chrome 87.0.4280.88","recognition",3,"SS1",21,1348.44499995233,"def_new","new","high","new",1,1,0,"recog_trial","SS1",4,2,4,"pet store.png","rand",5,1,1,"bettafishB.png","lure"
"19/07/2021 20:05:39","19/07/2021 16:05:39",56975,3,4297922,"5c3272172f0f3500010284c0","Chrome 87.0.4280.88","recognition",3,"SS1",22,1277.18999999342,"def_old","old","high","new",1,0,0,"recog_trial","SS1",5,3,4,"pet store.png","rand",1,4,1,"batB.png","lure"
"19/07/2021 20:05:41","19/07/2021 16:05:41",56975,3,4297922,"5c3272172f0f3500010284c0","Chrome 87.0.4280.88","recognition",3,"SS1",23,690.204999991693,"def_old","old","high","old",1,1,0,"recog_trial","SS1",2,1,2,"pet store.png","rand",1,2,1,"manateeA.png","target"
"19/07/2021 20:05:44","19/07/2021 16:05:44",56975,3,4297922,"5c3272172f0f3500010284c0","Chrome 87.0.4280.88","recognition",3,"SS1",24,2065.47500001034,"maybe_old","old","low","new",1,0,0,"recog_trial","SS1",7,4,3,"pet store.png","rand",5,2,1,"foxB.png","lure"
"19/07/2021 20:05:48","19/07/2021 16:05:48",56975,3,4297922,"5c3272172f0f3500010284c0","Chrome 87.0.4280.88","recognition",3,"SS1",25,2922.45000001276,"def_new","new","high","new",1,1,0,"recog_trial","SS1",7,4,1,"grocery store.png","pred",1,1,1,"acaibowlB.png","lure"
"19/07/2021 20:05:50","19/07/2021 16:05:50",56975,3,4297922,"5c3272172f0f3500010284c0","Chrome 87.0.4280.88","recognition",3,"SS1",26,1157.03999996185,"def_new","new","high","new",1,1,0,"recog_trial","SS1",3,2,1,"grocery store.png","pred",1,1,1,"cookedchickenB.png","lure"
"19/07/2021 20:05:53","19/07/2021 16:05:53",56975,3,4297922,"5c3272172f0f3500010284c0","Chrome 87.0.4280.88","recognition",3,"SS1",27,1454.95500002289,"def_old","old","high","new",1,0,0,"recog_trial","SS1",5,3,3,"grocery store.png","pred",1,1,1,"burritoB.png","lure"
"19/07/2021 20:06:01","19/07/2021 16:06:01",56975,3,4297922,"5c3272172f0f3500010284c0","Chrome 87.0.4280.88","recognition",3,"SS1",29,3794.37999997754,"def_old","old","high","old",1,1,0,"recog_trial","SS1",5,3,3,"grocery store.png","pred",4,4,2,"cupnoodleA.png","target"
"19/07/2021 20:06:04","19/07/2021 16:06:04",56975,3,4297922,"5c3272172f0f3500010284c0","Chrome 87.0.4280.88","recognition",3,"SS1",30,2314.68000001041,"maybe_old","old","low","old",1,1,0,"recog_trial","SS1",6,3,1,"pet store.png","rand",1,4,2,"crabA.png","target"
"19/07/2021 20:06:07","19/07/2021 16:06:06",56975,3,4297922,"5c3272172f0f3500010284c0","Chrome 87.0.4280.88","recognition",3,"SS1",31,1565.91000000481,"def_old","old","high","new",1,0,0,"recog_trial","SS1",2,1,2,"pet store.png","rand",4,3,2,"bloodhoundB.png","lure"
"19/07/2021 20:06:09","19/07/2021 16:06:09",56975,3,4297922,"5c3272172f0f3500010284c0","Chrome 87.0.4280.88","recognition",3,"SS1",32,1829.15000000503,"maybe_old","old","low","new",1,0,0,"recog_trial","SS1",5,3,4,"pet store.png","rand",2,2,2,"pugB.png","lure"
"19/07/2021 20:06:12","19/07/2021 16:06:11",56975,3,4297922,"5c3272172f0f3500010284c0","Chrome 87.0.4280.88","recognition",3,"SS1",33,1135.05499996245,"def_old","old","high","old",1,1,0,"recog_trial","SS1",6,3,1,"pet store.png","rand",2,2,2,"bearA.png","target"
"19/07/2021 20:06:14","19/07/2021 16:06:14",56975,3,4297922,"5c3272172f0f3500010284c0","Chrome 87.0.4280.88","recognition",3,"SS1",34,1495.12500001583,"maybe_new","new","low","new",1,1,0,"recog_trial","SS1",3,2,2,"pet store.png","rand",6,3,2,"bisonB.png","lure"
"19/07/2021 20:06:17","19/07/2021 16:06:16",56975,3,4297922,"5c3272172f0f3500010284c0","Chrome 87.0.4280.88","recognition",3,"SS1",35,1498.26999998186,"maybe_new","new","low","old",1,0,0,"recog_trial","SS1",3,2,2,"pet store.png","rand",5,1,2,"horseA.png","target"
"19/07/2021 20:06:19","19/07/2021 16:06:19",56975,3,4297922,"5c3272172f0f3500010284c0","Chrome 87.0.4280.88","recognition",3,"SS1",36,1092.77500002645,"def_old","old","high","new",1,0,0,"recog_trial","SS1",2,1,2,"pet store.png","rand",5,4,2,"eagleB.png","lure"
"19/07/2021 20:06:22","19/07/2021 16:06:21",56975,3,4297922,"5c3272172f0f3500010284c0","Chrome 87.0.4280.88","recognition",3,"SS1",37,1920.30999995768,"def_old","old","high","old",1,1,0,"recog_trial","SS1",7,4,1,"grocery store.png","pred",2,4,2,"icecreamsandwichA.png","target"
"19/07/2021 20:06:24","19/07/2021 16:06:24",56975,3,4297922,"5c3272172f0f3500010284c0","Chrome 87.0.4280.88","recognition",3,"SS1",38,1740.53999996977,"maybe_new","new","low","old",1,0,0,"recog_trial","SS1",3,2,1,"grocery store.png","pred",4,4,2,"carrotsA.png","target"
"19/07/2021 20:06:27","19/07/2021 16:06:26",56975,3,4297922,"5c3272172f0f3500010284c0","Chrome 87.0.4280.88","recognition",3,"SS1",39,1236.11999995774,"maybe_new","new","low","old",1,0,0,"recog_trial","SS1",1,1,4,"grocery store.png","pred",6,3,2,"artichokeA.png","target"
"19/07/2021 20:06:29","19/07/2021 16:06:28",56975,3,4297922,"5c3272172f0f3500010284c0","Chrome 87.0.4280.88","recognition",3,"SS1",40,978.999999992084,"def_old","old","high","new",1,0,0,"recog_trial","SS1",8,4,2,"grocery store.png","pred",6,3,2,"coconutB.png","lure"
"19/07/2021 20:06:31","19/07/2021 16:06:30",56975,3,4297922,"5c3272172f0f3500010284c0","Chrome 87.0.4280.88","recognition",3,"SS1",41,884.774999984074,"def_old","old","high","old",1,1,0,"recog_trial","SS1",7,4,1,"grocery store.png","pred",6,3,2,"mustardA.png","target"
"19/07/2021 20:06:33","19/07/2021 16:06:33",56975,3,4297922,"5c3272172f0f3500010284c0","Chrome 87.0.4280.88","recognition",3,"SS1",42,1223.35000004387,"maybe_new","new","low","old",1,0,0,"recog_trial","SS1",1,1,3,"pet store.png","rand",3,1,2,"boarA.png","target"
"19/07/2021 20:06:35","19/07/2021 16:06:35",56975,3,4297922,"5c3272172f0f3500010284c0","Chrome 87.0.4280.88","recognition",3,"SS1",43,1135.5549999862,"def_old","old","high","new",1,0,0,"recog_trial","SS1",2,1,4,"grocery store.png","pred",2,4,2,"waffleB.png","lure"
"19/07/2021 20:06:37","19/07/2021 16:06:37",56975,3,4297922,"5c3272172f0f3500010284c0","Chrome 87.0.4280.88","recognition",3,"SS1",44,1334.76999995764,"def_old","old","high","new",1,0,0,"recog_trial","SS1",4,2,2,"grocery store.png","pred",5,2,2,"gummybearsB.png","lure"
"19/07/2021 20:06:40","19/07/2021 16:06:39",56975,3,4297922,"5c3272172f0f3500010284c0","Chrome 87.0.4280.88","recognition",3,"SS1",45,1289.08999997657,"maybe_new","new","low","new",1,1,0,"recog_trial","SS1",6,3,1,"pet store.png","rand",4,3,2,"emuB.png","lure"
"19/07/2021 20:06:42","19/07/2021 16:06:42",56975,3,4297922,"5c3272172f0f3500010284c0","Chrome 87.0.4280.88","recognition",3,"SS1",46,1324.22000000952,"def_new","new","high","old",1,0,0,"recog_trial","SS1",4,2,2,"grocery store.png","pred",6,3,2,"strawberriesA.png","target"
"19/07/2021 20:06:44","19/07/2021 16:06:44",56975,3,4297922,"5c3272172f0f3500010284c0","Chrome 87.0.4280.88","recognition",3,"SS1",47,1471.36500000488,"maybe_new","new","low","old",1,0,0,"recog_trial","SS1",2,1,2,"pet store.png","rand",6,1,2,"platypusA.png","target"
"19/07/2021 20:06:47","19/07/2021 16:06:46",56975,3,4297922,"5c3272172f0f3500010284c0","Chrome 87.0.4280.88","recognition",3,"SS1",48,1172.0750000095,"def_old","old","high","new",1,0,0,"recog_trial","SS1",8,4,2,"grocery store.png","pred",2,4,2,"lemonB.png","lure"
"19/07/2021 20:06:49","19/07/2021 16:06:48",56975,3,4297922,"5c3272172f0f3500010284c0","Chrome 87.0.4280.88","recognition",3,"SS1",49,1108.08000003453,"def_old","old","high","new",1,0,0,"recog_trial","SS1",6,3,3,"grocery store.png","pred",6,3,2,"celeryB.png","lure"
"19/07/2021 20:06:51","19/07/2021 16:06:51",56975,3,4297922,"5c3272172f0f3500010284c0","Chrome 87.0.4280.88","recognition",3,"SS1",50,1334.29999998771,"maybe_new","new","low","new",1,1,0,"recog_trial","SS1",3,2,2,"pet store.png","rand",1,4,2,"chickenB.png","lure"
"19/07/2021 20:06:53","19/07/2021 16:06:53",56975,3,4297922,"5c3272172f0f3500010284c0","Chrome 87.0.4280.88","recognition",3,"SS1",51,1362.55000001984,"maybe_old","old","low","old",1,1,0,"recog_trial","SS1",7,4,3,"pet store.png","rand",6,1,2,"koalaA.png","target"
"19/07/2021 20:06:56","19/07/2021 16:06:55",56975,3,4297922,"5c3272172f0f3500010284c0","Chrome 87.0.4280.88","recognition",3,"SS1",52,1153.07499998016,"maybe_old","old","low","new",1,0,0,"recog_trial","SS1",7,4,1,"grocery store.png","pred",5,2,2,"butterB.png","lure"
"19/07/2021 20:07:03","19/07/2021 16:07:02",56975,3,4297922,"5c3272172f0f3500010284c0","Chrome 87.0.4280.88","recognition",3,"SS1",54,1584.91500001401,"maybe_new","new","low","old",1,0,0,"recog_trial","SS1",6,3,3,"grocery store.png","pred",5,2,3,"eggA.png","target"
"19/07/2021 20:07:05","19/07/2021 16:07:05",56975,3,4297922,"5c3272172f0f3500010284c0","Chrome 87.0.4280.88","recognition",3,"SS1",55,1370.08000002243,"def_old","old","high","new",1,0,0,"recog_trial","SS1",7,4,3,"pet store.png","rand",1,3,3,"camelB.png","lure"
"19/07/2021 20:07:07","19/07/2021 16:07:06",56975,3,4297922,"5c3272172f0f3500010284c0","Chrome 87.0.4280.88","recognition",3,"SS1",56,760.520000010729,"def_old","old","high","old",1,1,0,"recog_trial","SS1",8,4,1,"pet store.png","rand",2,1,3,"ratA.png","target"
"19/07/2021 20:07:09","19/07/2021 16:07:09",56975,3,4297922,"5c3272172f0f3500010284c0","Chrome 87.0.4280.88","recognition",3,"SS1",57,1274.18999996735,"maybe_new","new","low","new",1,1,0,"recog_trial","SS1",7,4,1,"grocery store.png","pred",4,4,3,"chocolatemilkB.png","lure"
"19/07/2021 20:07:11","19/07/2021 16:07:11",56975,3,4297922,"5c3272172f0f3500010284c0","Chrome 87.0.4280.88","recognition",3,"SS1",58,806.650000042282,"maybe_new","new","low","new",1,1,0,"recog_trial","SS1",4,2,2,"grocery store.png","pred",3,3,3,"clamsB.png","lure"
"19/07/2021 20:07:13","19/07/2021 16:07:13",56975,3,4297922,"5c3272172f0f3500010284c0","Chrome 87.0.4280.88","recognition",3,"SS1",59,1245.27999997372,"def_old","old","high","old",1,1,0,"recog_trial","SS1",8,4,2,"grocery store.png","pred",5,2,3,"peachesA.png","target"
"19/07/2021 20:07:15","19/07/2021 16:07:15",56975,3,4297922,"5c3272172f0f3500010284c0","Chrome 87.0.4280.88","recognition",3,"SS1",60,1314.43000002764,"def_old","old","high","new",1,0,0,"recog_trial","SS1",5,3,3,"grocery store.png","pred",3,3,3,"cupcakeB.png","lure"
"19/07/2021 20:07:18","19/07/2021 16:07:17",56975,3,4297922,"5c3272172f0f3500010284c0","Chrome 87.0.4280.88","recognition",3,"SS1",61,1206.38500002678,"maybe_new","new","low","new",1,1,0,"recog_trial","SS1",6,3,3,"grocery store.png","pred",4,4,3,"poutineB.png","lure"
"19/07/2021 20:07:19","19/07/2021 16:07:19",56975,3,4297922,"5c3272172f0f3500010284c0","Chrome 87.0.4280.88","recognition",3,"SS1",62,844.495000026654,"def_old","old","high","new",1,0,0,"recog_trial","SS1",4,2,4,"pet store.png","rand",2,4,3,"squidB.png","lure"
"19/07/2021 20:07:22","19/07/2021 16:07:21",56975,3,4297922,"5c3272172f0f3500010284c0","Chrome 87.0.4280.88","recognition",3,"SS1",63,1123.39999998221,"maybe_new","new","low","new",1,1,0,"recog_trial","SS1",5,3,3,"grocery store.png","pred",5,2,3,"beetB.png","lure"
"19/07/2021 20:07:24","19/07/2021 16:07:23",56975,3,4297922,"5c3272172f0f3500010284c0","Chrome 87.0.4280.88","recognition",3,"SS1",64,1036.98999999324,"def_old","old","high","old",1,1,0,"recog_trial","SS1",1,1,3,"pet store.png","rand",4,2,3,"dolphinA.png","target"
"19/07/2021 20:07:26","19/07/2021 16:07:25",56975,3,4297922,"5c3272172f0f3500010284c0","Chrome 87.0.4280.88","recognition",3,"SS1",65,1050.58499996085,"maybe_new","new","low","new",1,1,0,"recog_trial","SS1",1,1,4,"grocery store.png","pred",3,3,3,"pretzelB.png","lure"
"19/07/2021 20:07:28","19/07/2021 16:07:28",56975,3,4297922,"5c3272172f0f3500010284c0","Chrome 87.0.4280.88","recognition",3,"SS1",66,1384.22000000719,"maybe_old","old","low","old",1,1,0,"recog_trial","SS1",1,1,4,"grocery store.png","pred",4,4,3,"pomegranateA.png","target"
"19/07/2021 20:07:30","19/07/2021 16:07:30",56975,3,4297922,"5c3272172f0f3500010284c0","Chrome 87.0.4280.88","recognition",3,"SS1",67,959.069999982603,"def_old","old","high","new",1,0,0,"recog_trial","SS1",1,1,3,"pet store.png","rand",2,4,3,"gorillaB.png","lure"
"19/07/2021 20:07:32","19/07/2021 16:07:32",56975,3,4297922,"5c3272172f0f3500010284c0","Chrome 87.0.4280.88","recognition",3,"SS1",68,1113.21999999927,"maybe_old","old","low","old",1,1,0,"recog_trial","SS1",8,4,1,"pet store.png","rand",5,4,3,"canadiangooseA.png","target"
"19/07/2021 20:07:36","19/07/2021 16:07:36",56975,3,4297922,"5c3272172f0f3500010284c0","Chrome 87.0.4280.88","recognition",3,"SS1",69,2547.48499998823,"maybe_new","new","low","new",1,1,0,"recog_trial","SS1",3,2,2,"pet store.png","rand",3,1,3,"catB.png","lure"
"19/07/2021 20:07:38","19/07/2021 16:07:38",56975,3,4297922,"5c3272172f0f3500010284c0","Chrome 87.0.4280.88","recognition",3,"SS1",70,1001.4450000017,"maybe_new","new","low","old",1,0,0,"recog_trial","SS1",5,3,4,"pet store.png","rand",3,3,3,"hedgehogA.png","target"
"19/07/2021 20:07:40","19/07/2021 16:07:39",56975,3,4297922,"5c3272172f0f3500010284c0","Chrome 87.0.4280.88","recognition",3,"SS1",71,852.124999975786,"maybe_new","new","low","old",1,0,0,"recog_trial","SS1",1,1,3,"pet store.png","rand",5,1,3,"deerA.png","target"
"19/07/2021 20:07:41","19/07/2021 16:07:41",56975,3,4297922,"5c3272172f0f3500010284c0","Chrome 87.0.4280.88","recognition",3,"SS1",72,784.770000027493,"maybe_new","new","low","old",1,0,0,"recog_trial","SS1",4,2,4,"pet store.png","rand",6,2,3,"pigA.png","target"
"19/07/2021 20:07:43","19/07/2021 16:07:43",56975,3,4297922,"5c3272172f0f3500010284c0","Chrome 87.0.4280.88","recognition",3,"SS1",73,1080.59500000672,"maybe_old","old","low","old",1,1,0,"recog_trial","SS1",5,3,3,"grocery store.png","pred",6,3,3,"kiwiA.png","target"
"19/07/2021 20:07:46","19/07/2021 16:07:46",56975,3,4297922,"5c3272172f0f3500010284c0","Chrome 87.0.4280.88","recognition",3,"SS1",74,1627.91499996092,"def_old","old","high","new",1,0,0,"recog_trial","SS1",8,4,1,"pet store.png","rand",6,2,3,"beetleB.png","lure"
"19/07/2021 20:07:49","19/07/2021 16:07:49",56975,3,4297922,"5c3272172f0f3500010284c0","Chrome 87.0.4280.88","recognition",3,"SS1",75,1731.07500001788,"def_new","new","high","old",1,0,0,"recog_trial","SS1",3,2,1,"grocery store.png","pred",3,3,3,"cakeA.png","target"
"19/07/2021 20:07:51","19/07/2021 16:07:51",56975,3,4297922,"5c3272172f0f3500010284c0","Chrome 87.0.4280.88","recognition",3,"SS1",76,1351.87499999302,"def_new","new","high","new",1,1,0,"recog_trial","SS1",2,1,2,"pet store.png","rand",3,4,3,"cardinalB.png","lure"
"19/07/2021 20:07:53","19/07/2021 16:07:53",56975,3,4297922,"5c3272172f0f3500010284c0","Chrome 87.0.4280.88","recognition",3,"SS1",77,1176.25999997836,"def_old","old","high","old",1,1,0,"recog_trial","SS1",3,2,2,"pet store.png","rand",2,3,3,"hippoA.png","target"
"19/07/2021 20:07:58","19/07/2021 16:07:58",56975,3,4297922,"5c3272172f0f3500010284c0","Chrome 87.0.4280.88","recognition",3,"SS1",79,1488.50999999559,"def_old","old","high","old",1,1,0,"recog_trial","SS1",8,4,2,"grocery store.png","pred",4,4,4,"burgerA.png","target"
"19/07/2021 20:08:00","19/07/2021 16:08:00",56975,3,4297922,"5c3272172f0f3500010284c0","Chrome 87.0.4280.88","recognition",3,"SS1",80,931.439999956638,"def_old","old","high","old",1,1,0,"recog_trial","SS1",8,4,1,"pet store.png","rand",1,3,4,"kangarooA.png","target"
"19/07/2021 20:08:02","19/07/2021 16:08:02",56975,3,4297922,"5c3272172f0f3500010284c0","Chrome 87.0.4280.88","recognition",3,"SS1",81,1167.14500001399,"def_new","new","high","new",1,1,0,"recog_trial","SS1",3,2,1,"grocery store.png","pred",6,3,4,"popcornshrimpB.png","lure"
"19/07/2021 20:08:05","19/07/2021 16:08:05",56975,3,4297922,"5c3272172f0f3500010284c0","Chrome 87.0.4280.88","recognition",3,"SS1",82,1334.10999999614,"def_new","new","high","old",1,0,0,"recog_trial","SS1",6,3,3,"grocery store.png","pred",3,3,4,"ramenA.png","target"
"19/07/2021 20:08:06","19/07/2021 16:08:06",56975,3,4297922,"5c3272172f0f3500010284c0","Chrome 87.0.4280.88","recognition",3,"SS1",83,785.750000039116,"def_new","new","high","new",1,1,0,"recog_trial","SS1",4,2,2,"grocery store.png","pred",4,4,4,"cookiesB.png","lure"
"19/07/2021 20:08:08","19/07/2021 16:08:08",56975,3,4297922,"5c3272172f0f3500010284c0","Chrome 87.0.4280.88","recognition",3,"SS1",84,784.229999990202,"def_new","new","high","new",1,1,0,"recog_trial","SS1",5,3,3,"grocery store.png","pred",2,4,4,"oliveoilB.png","lure"
"19/07/2021 20:08:11","19/07/2021 16:08:10",56975,3,4297922,"5c3272172f0f3500010284c0","Chrome 87.0.4280.88","recognition",3,"SS1",85,1238.74000000069,"def_new","new","high","new",1,1,0,"recog_trial","SS1",7,4,3,"pet store.png","rand",2,2,4,"tortoiseB.png","lure"
"19/07/2021 20:08:13","19/07/2021 16:08:13",56975,3,4297922,"5c3272172f0f3500010284c0","Chrome 87.0.4280.88","recognition",3,"SS1",86,1138.34000000497,"def_new","new","high","new",1,1,0,"recog_trial","SS1",4,2,2,"grocery store.png","pred",2,4,4,"bakedpotatoB.png","lure"
"19/07/2021 20:08:15","19/07/2021 16:08:15",56975,3,4297922,"5c3272172f0f3500010284c0","Chrome 87.0.4280.88","recognition",3,"SS1",87,983.319999999367,"def_old","old","high","new",1,0,0,"recog_trial","SS1",5,3,4,"pet store.png","rand",6,2,4,"pandaB.png","lure"
"19/07/2021 20:08:17","19/07/2021 16:08:16",56975,3,4297922,"5c3272172f0f3500010284c0","Chrome 87.0.4280.88","recognition",3,"SS1",88,985.054999997374,"def_old","old","high","old",1,1,0,"recog_trial","SS1",1,1,4,"grocery store.png","pred",5,2,4,"dragonfruitA.png","target"
"19/07/2021 20:08:19","19/07/2021 16:08:19",56975,3,4297922,"5c3272172f0f3500010284c0","Chrome 87.0.4280.88","recognition",3,"SS1",89,1006.7599999602,"maybe_old","old","low","old",1,1,0,"recog_trial","SS1",3,2,1,"grocery store.png","pred",5,2,4,"cantaloupeA.png","target"
"19/07/2021 20:08:21","19/07/2021 16:08:21",56975,3,4297922,"5c3272172f0f3500010284c0","Chrome 87.0.4280.88","recognition",3,"SS1",90,1029.28499999689,"def_old","old","high","old",1,1,0,"recog_trial","SS1",6,3,3,"grocery store.png","pred",2,4,4,"honeycombA.png","target"
"19/07/2021 20:08:23","19/07/2021 16:08:23",56975,3,4297922,"5c3272172f0f3500010284c0","Chrome 87.0.4280.88","recognition",3,"SS1",91,1308.245000022,"def_old","old","high","old",1,1,0,"recog_trial","SS1",8,4,2,"grocery store.png","pred",3,3,4,"porkA.png","target"
"19/07/2021 20:08:25","19/07/2021 16:08:25",56975,3,4297922,"5c3272172f0f3500010284c0","Chrome 87.0.4280.88","recognition",3,"SS1",92,703.600000008009,"def_old","old","high","new",1,0,0,"recog_trial","SS1",1,1,3,"pet store.png","rand",1,3,4,"seahorseB.png","lure"
"19/07/2021 20:08:27","19/07/2021 16:08:27",56975,3,4297922,"5c3272172f0f3500010284c0","Chrome 87.0.4280.88","recognition",3,"SS1",93,1171.4899999788,"maybe_old","old","low","old",1,1,0,"recog_trial","SS1",1,1,4,"grocery store.png","pred",2,4,4,"caramelappleA.png","target"
"19/07/2021 20:08:29","19/07/2021 16:08:29",56975,3,4297922,"5c3272172f0f3500010284c0","Chrome 87.0.4280.88","recognition",3,"SS1",94,1107.32000001008,"maybe_new","new","low","new",1,1,0,"recog_trial","SS1",6,3,1,"pet store.png","rand",5,2,4,"iguanaB.png","lure"
"19/07/2021 20:08:31","19/07/2021 16:08:31",56975,3,4297922,"5c3272172f0f3500010284c0","Chrome 87.0.4280.88","recognition",3,"SS1",95,933.125000039581,"maybe_new","new","low","new",1,1,0,"recog_trial","SS1",2,1,4,"grocery store.png","pred",1,1,4,"tomatoB.png","lure"
"19/07/2021 20:08:33","19/07/2021 16:08:33",56975,3,4297922,"5c3272172f0f3500010284c0","Chrome 87.0.4280.88","recognition",3,"SS1",96,767.654999974184,"maybe_new","new","low","new",1,1,0,"recog_trial","SS1",7,4,3,"pet store.png","rand",3,4,4,"lemurB.png","lure"
"19/07/2021 20:08:35","19/07/2021 16:08:35",56975,3,4297922,"5c3272172f0f3500010284c0","Chrome 87.0.4280.88","recognition",3,"SS1",97,1192.53000000026,"maybe_old","old","low","old",1,1,0,"recog_trial","SS1",3,2,1,"grocery store.png","pred",2,4,4,"coffeeA.png","target"
"19/07/2021 20:08:37","19/07/2021 16:08:37",56975,3,4297922,"5c3272172f0f3500010284c0","Chrome 87.0.4280.88","recognition",3,"SS1",98,1032.86000003573,"def_old","old","high","new",1,0,0,"recog_trial","SS1",7,4,1,"grocery store.png","pred",3,3,4,"croissantB.png","lure"
"19/07/2021 20:08:39","19/07/2021 16:08:39",56975,3,4297922,"5c3272172f0f3500010284c0","Chrome 87.0.4280.88","recognition",3,"SS1",99,774.460000044201,"def_old","old","high","old",1,1,0,"recog_trial","SS1",4,2,4,"pet store.png","rand",1,3,4,"ostrichA.png","target"
"19/07/2021 20:08:41","19/07/2021 16:08:41",56975,3,4297922,"5c3272172f0f3500010284c0","Chrome 87.0.4280.88","recognition",3,"SS1",100,869.720000016969,"maybe_old","old","low","old",1,1,0,"recog_trial","SS1",6,3,1,"pet store.png","rand",6,3,4,"donkeyA.png","target"
